id,trial,word_class,target_word,chosen_word,chosen_category,chosen_position,correct,timestamp,responsetime_ms,tdate,Gender,Languages;;,dob,age
vie6u5cf,1,noun,auge,auge,target,upper-left,TRUE,2026-01-30T11:10:07Z,10967,2026-01-30,Männlich,Deutsch;;,2022-11-07,3.2306639288158796
vie6u5cf,2,verb,schweben,schweben,target,lower-left,TRUE,2026-01-30T11:10:14Z,4794,2026-01-30,Männlich,Deutsch;;,2022-11-07,3.2306639288158796
vie6u5cf,3,noun,moehre,moehre,target,lower-right,TRUE,2026-01-30T11:10:17Z,2919,2026-01-30,Männlich,Deutsch;;,2022-11-07,3.2306639288158796
vie6u5cf,4,noun,ameise,ameise,target,upper-right,TRUE,2026-01-30T11:10:22Z,3665,2026-01-30,Männlich,Deutsch;;,2022-11-07,3.2306639288158796
vie6u5cf,5,verb,jonglieren,werfen,dist1,lower-right,FALSE,2026-01-30T11:10:29Z,4913,2026-01-30,Männlich,Deutsch;;,2022-11-07,3.2306639288158796
vie6u5cf,6,noun,elch,skelett,dist3,upper-right,FALSE,2026-01-30T11:10:32Z,1229,2026-01-30,Männlich,Deutsch;;,2022-11-07,3.2306639288158796
vie6u5cf,7,noun,chor,tastatur,dist3,lower-left,FALSE,2026-01-30T11:10:44Z,5287,2026-01-30,Männlich,Deutsch;;,2022-11-07,3.2306639288158796
vie6u5cf,8,verb,torkeln,schnorcheln,dist2,upper-right,FALSE,2026-01-30T11:10:55Z,4281,2026-01-30,Männlich,Deutsch;;,2022-11-07,3.2306639288158796
vie6u5cf,9,verb,studieren,marschieren,dist2,upper-left,FALSE,2026-01-30T11:11:01Z,3626,2026-01-30,Männlich,Deutsch;;,2022-11-07,3.2306639288158796
vie6u5cf,10,verb,operieren,operieren,target,lower-left,TRUE,2026-01-30T11:11:10Z,6913,2026-01-30,Männlich,Deutsch;;,2022-11-07,3.2306639288158796
vie6u5cf,11,noun,ventilator,ventilator,target,lower-left,TRUE,2026-01-30T11:11:21Z,6137,2026-01-30,Männlich,Deutsch;;,2022-11-07,3.2306639288158796
vie6u5cf,12,verb,waehlen,ueberlegen,dist1,upper-right,FALSE,2026-01-30T11:11:30Z,8055,2026-01-30,Männlich,Deutsch;;,2022-11-07,3.2306639288158796
vie6u5cf,13,noun,rucola,drakula,dist2,upper-left,FALSE,2026-01-30T11:11:38Z,4621,2026-01-30,Männlich,Deutsch;;,2022-11-07,3.2306639288158796
vie6u5cf,14,verb,scheren,leeren,dist2,lower-right,FALSE,2026-01-30T11:11:45Z,4904,2026-01-30,Männlich,Deutsch;;,2022-11-07,3.2306639288158796
vie6u5cf,15,noun,giraffe,giraffe,target,upper-left,TRUE,2026-01-30T11:11:48Z,2429,2026-01-30,Männlich,Deutsch;;,2022-11-07,3.2306639288158796
vie6u5cf,16,noun,palme,kaktus,dist1,upper-right,FALSE,2026-01-30T11:12:09Z,16215,2026-01-30,Männlich,Deutsch;;,2022-11-07,3.2306639288158796
vie6u5cf,17,verb,tadeln,fluestern,dist3,upper-left,FALSE,2026-01-30T11:12:15Z,2873,2026-01-30,Männlich,Deutsch;;,2022-11-07,3.2306639288158796
vie6u5cf,18,noun,ananas,gitarre,dist2,upper-right,FALSE,2026-01-30T11:12:47Z,29509,2026-01-30,Männlich,Deutsch;;,2022-11-07,3.2306639288158796
vie6u5cf,19,verb,empfangen,verschicken,dist1,lower-left,FALSE,2026-01-30T11:12:54Z,3013,2026-01-30,Männlich,Deutsch;;,2022-11-07,3.2306639288158796
vie6u5cf,20,verb,verloben,heiraten,dist1,lower-right,FALSE,2026-01-30T11:12:59Z,3039,2026-01-30,Männlich,Deutsch;;,2022-11-07,3.2306639288158796
vie6u5cf,21,noun,ozean,ozean,target,upper-left,TRUE,2026-01-30T11:13:04Z,3001,2026-01-30,Männlich,Deutsch;;,2022-11-07,3.2306639288158796
vie6u5cf,22,verb,faulenzen,begrenzen,dist1,lower-right,FALSE,2026-01-30T11:13:09Z,2916,2026-01-30,Männlich,Deutsch;;,2022-11-07,3.2306639288158796
vie6u5cf,23,noun,gazelle,astronaut,dist3,lower-left,FALSE,2026-01-30T11:13:14Z,3685,2026-01-30,Männlich,Deutsch;;,2022-11-07,3.2306639288158796
vie6u5cf,24,verb,liefern,liefern,target,lower-left,TRUE,2026-01-30T11:13:19Z,2448,2026-01-30,Männlich,Deutsch;;,2022-11-07,3.2306639288158796
vie6u5cf,25,noun,pfifferling,schmetterling,dist2,lower-left,FALSE,2026-01-30T11:13:42Z,20810,2026-01-30,Männlich,Deutsch;;,2022-11-07,3.2306639288158796
vie6u5cf,26,verb,dekorieren,dekorieren,target,upper-right,TRUE,2026-01-30T11:13:49Z,3111,2026-01-30,Männlich,Deutsch;;,2022-11-07,3.2306639288158796
vie6u5cf,27,verb,bekennen,verstecken,dist1,lower-right,FALSE,2026-01-30T11:13:55Z,3591,2026-01-30,Männlich,Deutsch;;,2022-11-07,3.2306639288158796
vie6u5cf,28,noun,ruine,schiene,dist2,lower-left,FALSE,2026-01-30T11:14:04Z,2772,2026-01-30,Männlich,Deutsch;;,2022-11-07,3.2306639288158796
vie6u5cf,29,noun,labyrinth,labyrinth,target,lower-left,TRUE,2026-01-30T11:14:20Z,3068,2026-01-30,Männlich,Deutsch;;,2022-11-07,3.2306639288158796
vie6u5cf,30,noun,orchidee,zeh,dist2,upper-right,FALSE,2026-01-30T11:14:25Z,3100,2026-01-30,Männlich,Deutsch;;,2022-11-07,3.2306639288158796
vie6u5cf,31,verb,schwanken,schenken,dist2,lower-left,FALSE,2026-01-30T11:14:30Z,3411,2026-01-30,Männlich,Deutsch;;,2022-11-07,3.2306639288158796
vie6u5cf,32,noun,zucchini,skateboard,dist3,lower-left,FALSE,2026-01-30T11:14:35Z,2923,2026-01-30,Männlich,Deutsch;;,2022-11-07,3.2306639288158796
vie6u5cf,33,verb,tuermen,tuermen,target,upper-left,TRUE,2026-01-30T11:14:42Z,4004,2026-01-30,Männlich,Deutsch;;,2022-11-07,3.2306639288158796
vie6u5cf,34,verb,befreien,schreien,dist2,upper-left,FALSE,2026-01-30T11:14:52Z,5764,2026-01-30,Männlich,Deutsch;;,2022-11-07,3.2306639288158796
vie6u5cf,35,noun,kajak,kajak,target,upper-left,TRUE,2026-01-30T11:14:58Z,3924,2026-01-30,Männlich,Deutsch;;,2022-11-07,3.2306639288158796
vie6u5cf,36,verb,abseilen,herunterklettern,dist1,lower-left,FALSE,2026-01-30T11:15:02Z,3090,2026-01-30,Männlich,Deutsch;;,2022-11-07,3.2306639288158796
vie6u5cf,37,verb,tuscheln,singen,dist3,upper-left,FALSE,2026-01-30T11:15:20Z,16210,2026-01-30,Männlich,Deutsch;;,2022-11-07,3.2306639288158796
vie6u5cf,38,noun,hummer,hummer,target,upper-right,TRUE,2026-01-30T11:15:25Z,3528,2026-01-30,Männlich,Deutsch;;,2022-11-07,3.2306639288158796
vie6u5cf,39,noun,nelke,zelt,dist2,lower-left,FALSE,2026-01-30T11:15:30Z,3813,2026-01-30,Männlich,Deutsch;;,2022-11-07,3.2306639288158796
vie6u5cf,40,verb,betrachten,betrachten,target,lower-left,TRUE,2026-01-30T11:15:38Z,3802,2026-01-30,Männlich,Deutsch;;,2022-11-07,3.2306639288158796
vie6u5cf,41,noun,flunder,flunder,target,lower-right,TRUE,2026-01-30T11:15:43Z,3068,2026-01-30,Männlich,Deutsch;;,2022-11-07,3.2306639288158796
vie6u5cf,42,noun,cello,cello,target,lower-left,TRUE,2026-01-30T11:15:48Z,2993,2026-01-30,Männlich,Deutsch;;,2022-11-07,3.2306639288158796
vie6u5cf,1,noun,auge,auge,target,upper-left,TRUE,2026-01-30T11:10:07Z,10967,2026-01-30,Männlich,Deutsch;;,2022-11-07,3.2306639288158796
vie6u5cf,2,verb,schweben,schweben,target,lower-left,TRUE,2026-01-30T11:10:14Z,4794,2026-01-30,Männlich,Deutsch;;,2022-11-07,3.2306639288158796
vie6u5cf,3,noun,moehre,moehre,target,lower-right,TRUE,2026-01-30T11:10:17Z,2919,2026-01-30,Männlich,Deutsch;;,2022-11-07,3.2306639288158796
vie6u5cf,4,noun,ameise,ameise,target,upper-right,TRUE,2026-01-30T11:10:22Z,3665,2026-01-30,Männlich,Deutsch;;,2022-11-07,3.2306639288158796
vie6u5cf,5,verb,jonglieren,werfen,dist1,lower-right,FALSE,2026-01-30T11:10:29Z,4913,2026-01-30,Männlich,Deutsch;;,2022-11-07,3.2306639288158796
vie6u5cf,6,noun,elch,skelett,dist3,upper-right,FALSE,2026-01-30T11:10:32Z,1229,2026-01-30,Männlich,Deutsch;;,2022-11-07,3.2306639288158796
vie6u5cf,7,noun,chor,tastatur,dist3,lower-left,FALSE,2026-01-30T11:10:44Z,5287,2026-01-30,Männlich,Deutsch;;,2022-11-07,3.2306639288158796
vie6u5cf,8,verb,torkeln,schnorcheln,dist2,upper-right,FALSE,2026-01-30T11:10:55Z,4281,2026-01-30,Männlich,Deutsch;;,2022-11-07,3.2306639288158796
vie6u5cf,9,verb,studieren,marschieren,dist2,upper-left,FALSE,2026-01-30T11:11:01Z,3626,2026-01-30,Männlich,Deutsch;;,2022-11-07,3.2306639288158796
vie6u5cf,10,verb,operieren,operieren,target,lower-left,TRUE,2026-01-30T11:11:10Z,6913,2026-01-30,Männlich,Deutsch;;,2022-11-07,3.2306639288158796
vie6u5cf,11,noun,ventilator,ventilator,target,lower-left,TRUE,2026-01-30T11:11:21Z,6137,2026-01-30,Männlich,Deutsch;;,2022-11-07,3.2306639288158796
vie6u5cf,12,verb,waehlen,ueberlegen,dist1,upper-right,FALSE,2026-01-30T11:11:30Z,8055,2026-01-30,Männlich,Deutsch;;,2022-11-07,3.2306639288158796
vie6u5cf,13,noun,rucola,drakula,dist2,upper-left,FALSE,2026-01-30T11:11:38Z,4621,2026-01-30,Männlich,Deutsch;;,2022-11-07,3.2306639288158796
vie6u5cf,14,verb,scheren,leeren,dist2,lower-right,FALSE,2026-01-30T11:11:45Z,4904,2026-01-30,Männlich,Deutsch;;,2022-11-07,3.2306639288158796
vie6u5cf,15,noun,giraffe,giraffe,target,upper-left,TRUE,2026-01-30T11:11:48Z,2429,2026-01-30,Männlich,Deutsch;;,2022-11-07,3.2306639288158796
vie6u5cf,16,noun,palme,kaktus,dist1,upper-right,FALSE,2026-01-30T11:12:09Z,16215,2026-01-30,Männlich,Deutsch;;,2022-11-07,3.2306639288158796
vie6u5cf,17,verb,tadeln,fluestern,dist3,upper-left,FALSE,2026-01-30T11:12:15Z,2873,2026-01-30,Männlich,Deutsch;;,2022-11-07,3.2306639288158796
vie6u5cf,18,noun,ananas,gitarre,dist2,upper-right,FALSE,2026-01-30T11:12:47Z,29509,2026-01-30,Männlich,Deutsch;;,2022-11-07,3.2306639288158796
vie6u5cf,19,verb,empfangen,verschicken,dist1,lower-left,FALSE,2026-01-30T11:12:54Z,3013,2026-01-30,Männlich,Deutsch;;,2022-11-07,3.2306639288158796
vie6u5cf,20,verb,verloben,heiraten,dist1,lower-right,FALSE,2026-01-30T11:12:59Z,3039,2026-01-30,Männlich,Deutsch;;,2022-11-07,3.2306639288158796
vie6u5cf,21,noun,ozean,ozean,target,upper-left,TRUE,2026-01-30T11:13:04Z,3001,2026-01-30,Männlich,Deutsch;;,2022-11-07,3.2306639288158796
vie6u5cf,22,verb,faulenzen,begrenzen,dist1,lower-right,FALSE,2026-01-30T11:13:09Z,2916,2026-01-30,Männlich,Deutsch;;,2022-11-07,3.2306639288158796
vie6u5cf,23,noun,gazelle,astronaut,dist3,lower-left,FALSE,2026-01-30T11:13:14Z,3685,2026-01-30,Männlich,Deutsch;;,2022-11-07,3.2306639288158796
vie6u5cf,24,verb,liefern,liefern,target,lower-left,TRUE,2026-01-30T11:13:19Z,2448,2026-01-30,Männlich,Deutsch;;,2022-11-07,3.2306639288158796
vie6u5cf,25,noun,pfifferling,schmetterling,dist2,lower-left,FALSE,2026-01-30T11:13:42Z,20810,2026-01-30,Männlich,Deutsch;;,2022-11-07,3.2306639288158796
vie6u5cf,26,verb,dekorieren,dekorieren,target,upper-right,TRUE,2026-01-30T11:13:49Z,3111,2026-01-30,Männlich,Deutsch;;,2022-11-07,3.2306639288158796
vie6u5cf,27,verb,bekennen,verstecken,dist1,lower-right,FALSE,2026-01-30T11:13:55Z,3591,2026-01-30,Männlich,Deutsch;;,2022-11-07,3.2306639288158796
vie6u5cf,28,noun,ruine,schiene,dist2,lower-left,FALSE,2026-01-30T11:14:04Z,2772,2026-01-30,Männlich,Deutsch;;,2022-11-07,3.2306639288158796
vie6u5cf,29,noun,labyrinth,labyrinth,target,lower-left,TRUE,2026-01-30T11:14:20Z,3068,2026-01-30,Männlich,Deutsch;;,2022-11-07,3.2306639288158796
vie6u5cf,30,noun,orchidee,zeh,dist2,upper-right,FALSE,2026-01-30T11:14:25Z,3100,2026-01-30,Männlich,Deutsch;;,2022-11-07,3.2306639288158796
vie6u5cf,31,verb,schwanken,schenken,dist2,lower-left,FALSE,2026-01-30T11:14:30Z,3411,2026-01-30,Männlich,Deutsch;;,2022-11-07,3.2306639288158796
vie6u5cf,32,noun,zucchini,skateboard,dist3,lower-left,FALSE,2026-01-30T11:14:35Z,2923,2026-01-30,Männlich,Deutsch;;,2022-11-07,3.2306639288158796
vie6u5cf,33,verb,tuermen,tuermen,target,upper-left,TRUE,2026-01-30T11:14:42Z,4004,2026-01-30,Männlich,Deutsch;;,2022-11-07,3.2306639288158796
vie6u5cf,34,verb,befreien,schreien,dist2,upper-left,FALSE,2026-01-30T11:14:52Z,5764,2026-01-30,Männlich,Deutsch;;,2022-11-07,3.2306639288158796
vie6u5cf,35,noun,kajak,kajak,target,upper-left,TRUE,2026-01-30T11:14:58Z,3924,2026-01-30,Männlich,Deutsch;;,2022-11-07,3.2306639288158796
vie6u5cf,36,verb,abseilen,herunterklettern,dist1,lower-left,FALSE,2026-01-30T11:15:02Z,3090,2026-01-30,Männlich,Deutsch;;,2022-11-07,3.2306639288158796
vie6u5cf,37,verb,tuscheln,singen,dist3,upper-left,FALSE,2026-01-30T11:15:20Z,16210,2026-01-30,Männlich,Deutsch;;,2022-11-07,3.2306639288158796
vie6u5cf,38,noun,hummer,hummer,target,upper-right,TRUE,2026-01-30T11:15:25Z,3528,2026-01-30,Männlich,Deutsch;;,2022-11-07,3.2306639288158796
vie6u5cf,39,noun,nelke,zelt,dist2,lower-left,FALSE,2026-01-30T11:15:30Z,3813,2026-01-30,Männlich,Deutsch;;,2022-11-07,3.2306639288158796
vie6u5cf,40,verb,betrachten,betrachten,target,lower-left,TRUE,2026-01-30T11:15:38Z,3802,2026-01-30,Männlich,Deutsch;;,2022-11-07,3.2306639288158796
vie6u5cf,41,noun,flunder,flunder,target,lower-right,TRUE,2026-01-30T11:15:43Z,3068,2026-01-30,Männlich,Deutsch;;,2022-11-07,3.2306639288158796
vie6u5cf,42,noun,cello,cello,target,lower-left,TRUE,2026-01-30T11:15:48Z,2993,2026-01-30,Männlich,Deutsch;;,2022-11-07,3.2306639288158796
1F6K67kS,1,noun,auge,auge,target,upper-left,TRUE,2025-08-29T08:09:26Z,3912,2025-08-29,Weiblich,Deutsch;;,2021-05-22,4.271047227926078
1F6K67kS,2,verb,schweben,schweben,target,lower-left,TRUE,2025-08-29T08:09:36Z,4916,2025-08-29,Weiblich,Deutsch;;,2021-05-22,4.271047227926078
1F6K67kS,3,noun,moehre,moehre,target,lower-right,TRUE,2025-08-29T08:09:41Z,2909,2025-08-29,Weiblich,Deutsch;;,2021-05-22,4.271047227926078
1F6K67kS,4,noun,ameise,ameise,target,upper-right,TRUE,2025-08-29T08:09:48Z,5212,2025-08-29,Weiblich,Deutsch;;,2021-05-22,4.271047227926078
1F6K67kS,5,verb,jonglieren,jonglieren,target,upper-right,TRUE,2025-08-29T08:09:54Z,4133,2025-08-29,Weiblich,Deutsch;;,2021-05-22,4.271047227926078
1F6K67kS,6,noun,elch,elch,target,upper-left,TRUE,2025-08-29T08:09:59Z,3936,2025-08-29,Weiblich,Deutsch;;,2021-05-22,4.271047227926078
1F6K67kS,7,noun,chor,chor,target,upper-right,TRUE,2025-08-29T08:10:03Z,3084,2025-08-29,Weiblich,Deutsch;;,2021-05-22,4.271047227926078
1F6K67kS,8,verb,torkeln,torkeln,target,upper-left,TRUE,2025-08-29T08:10:12Z,7107,2025-08-29,Weiblich,Deutsch;;,2021-05-22,4.271047227926078
1F6K67kS,9,verb,studieren,marschieren,dist2,upper-left,FALSE,2025-08-29T08:10:19Z,5296,2025-08-29,Weiblich,Deutsch;;,2021-05-22,4.271047227926078
1F6K67kS,10,verb,operieren,operieren,target,lower-left,TRUE,2025-08-29T08:10:24Z,3537,2025-08-29,Weiblich,Deutsch;;,2021-05-22,4.271047227926078
1F6K67kS,11,noun,ventilator,ventilator,target,lower-left,TRUE,2025-08-29T08:10:32Z,6846,2025-08-29,Weiblich,Deutsch;;,2021-05-22,4.271047227926078
1F6K67kS,12,verb,waehlen,ueberlegen,dist1,upper-right,FALSE,2025-08-29T08:10:39Z,5688,2025-08-29,Weiblich,Deutsch;;,2021-05-22,4.271047227926078
1F6K67kS,13,noun,rucola,rucola,target,lower-right,TRUE,2025-08-29T08:10:44Z,3789,2025-08-29,Weiblich,Deutsch;;,2021-05-22,4.271047227926078
1F6K67kS,14,verb,scheren,scheren,target,upper-right,TRUE,2025-08-29T08:10:51Z,5890,2025-08-29,Weiblich,Deutsch;;,2021-05-22,4.271047227926078
1F6K67kS,15,noun,giraffe,giraffe,target,upper-left,TRUE,2025-08-29T08:10:55Z,3005,2025-08-29,Weiblich,Deutsch;;,2021-05-22,4.271047227926078
1F6K67kS,16,noun,palme,palme,target,lower-left,TRUE,2025-08-29T08:11:00Z,3471,2025-08-29,Weiblich,Deutsch;;,2021-05-22,4.271047227926078
1F6K67kS,17,verb,tadeln,loben,dist1,lower-right,FALSE,2025-08-29T08:11:13Z,12363,2025-08-29,Weiblich,Deutsch;;,2021-05-22,4.271047227926078
1F6K67kS,18,noun,ananas,ananas,target,lower-right,TRUE,2025-08-29T08:11:18Z,3042,2025-08-29,Weiblich,Deutsch;;,2021-05-22,4.271047227926078
1F6K67kS,19,verb,empfangen,empfangen,target,lower-right,TRUE,2025-08-29T08:11:24Z,4495,2025-08-29,Weiblich,Deutsch;;,2021-05-22,4.271047227926078
1F6K67kS,20,verb,verloben,heiraten,dist1,lower-right,FALSE,2025-08-29T08:11:32Z,7289,2025-08-29,Weiblich,Deutsch;;,2021-05-22,4.271047227926078
1F6K67kS,21,noun,ozean,fluss,dist1,lower-left,FALSE,2025-08-29T08:11:40Z,6358,2025-08-29,Weiblich,Deutsch;;,2021-05-22,4.271047227926078
1F6K67kS,22,verb,faulenzen,faulenzen,target,upper-left,TRUE,2025-08-29T08:11:53Z,11234,2025-08-29,Weiblich,Deutsch;;,2021-05-22,4.271047227926078
1F6K67kS,23,noun,gazelle,libelle,dist2,upper-left,FALSE,2025-08-29T08:11:59Z,4467,2025-08-29,Weiblich,Deutsch;;,2021-05-22,4.271047227926078
1F6K67kS,24,verb,liefern,liefern,target,lower-left,TRUE,2025-08-29T08:12:05Z,3582,2025-08-29,Weiblich,Deutsch;;,2021-05-22,4.271047227926078
1F6K67kS,25,noun,pfifferling,pfifferling,target,upper-left,TRUE,2025-08-29T08:12:11Z,4889,2025-08-29,Weiblich,Deutsch;;,2021-05-22,4.271047227926078
1F6K67kS,26,verb,dekorieren,dekorieren,target,upper-right,TRUE,2025-08-29T08:12:16Z,3436,2025-08-29,Weiblich,Deutsch;;,2021-05-22,4.271047227926078
1F6K67kS,27,verb,bekennen,ziehen,dist3,lower-left,FALSE,2025-08-29T08:12:25Z,8210,2025-08-29,Weiblich,Deutsch;;,2021-05-22,4.271047227926078
1F6K67kS,28,noun,ruine,ruine,target,lower-right,TRUE,2025-08-29T08:12:34Z,7659,2025-08-29,Weiblich,Deutsch;;,2021-05-22,4.271047227926078
1F6K67kS,29,noun,labyrinth,wirbelwind,dist2,lower-right,FALSE,2025-08-29T08:12:40Z,4237,2025-08-29,Weiblich,Deutsch;;,2021-05-22,4.271047227926078
1F6K67kS,30,noun,orchidee,banner,dist3,lower-right,FALSE,2025-08-29T08:12:47Z,4493,2025-08-29,Weiblich,Deutsch;;,2021-05-22,4.271047227926078
1F6K67kS,31,verb,schwanken,drehen,dist1,lower-right,FALSE,2025-08-29T08:12:55Z,7043,2025-08-29,Weiblich,Deutsch;;,2021-05-22,4.271047227926078
1F6K67kS,32,noun,zucchini,zucchini,target,upper-right,TRUE,2025-08-29T08:13:00Z,2877,2025-08-29,Weiblich,Deutsch;;,2021-05-22,4.271047227926078
1F6K67kS,33,verb,tuermen,oeffnen,dist3,lower-right,FALSE,2025-08-29T08:13:08Z,4793,2025-08-29,Weiblich,Deutsch;;,2021-05-22,4.271047227926078
1F6K67kS,34,verb,befreien,befreien,target,lower-right,TRUE,2025-08-29T08:13:13Z,3551,2025-08-29,Weiblich,Deutsch;;,2021-05-22,4.271047227926078
1F6K67kS,35,noun,kajak,bumerang,dist3,lower-right,FALSE,2025-08-29T08:13:19Z,4266,2025-08-29,Weiblich,Deutsch;;,2021-05-22,4.271047227926078
1F6K67kS,36,verb,abseilen,abseilen,target,upper-left,TRUE,2025-08-29T08:13:25Z,4910,2025-08-29,Weiblich,Deutsch;;,2021-05-22,4.271047227926078
1F6K67kS,37,verb,tuscheln,tuschen,dist2,upper-right,FALSE,2025-08-29T08:13:31Z,4408,2025-08-29,Weiblich,Deutsch;;,2021-05-22,4.271047227926078
1F6K67kS,38,noun,hummer,hummer,target,upper-right,TRUE,2025-08-29T08:13:39Z,7258,2025-08-29,Weiblich,Deutsch;;,2021-05-22,4.271047227926078
1F6K67kS,39,noun,nelke,kompass,dist3,upper-left,FALSE,2025-08-29T08:13:46Z,5694,2025-08-29,Weiblich,Deutsch;;,2021-05-22,4.271047227926078
1F6K67kS,40,verb,betrachten,bewachen,dist2,upper-right,FALSE,2025-08-29T08:13:53Z,5183,2025-08-29,Weiblich,Deutsch;;,2021-05-22,4.271047227926078
1F6K67kS,41,noun,flunder,holunder,dist2,upper-left,FALSE,2025-08-29T08:13:59Z,4507,2025-08-29,Weiblich,Deutsch;;,2021-05-22,4.271047227926078
1F6K67kS,42,noun,cello,harfe,dist1,lower-right,FALSE,2025-08-29T08:14:07Z,6234,2025-08-29,Weiblich,Deutsch;;,2021-05-22,4.271047227926078
1F6K67kS,1,noun,auge,auge,target,upper-left,TRUE,2025-11-21T09:02:05Z,7761,2025-11-21,Weiblich,Deutsch;;,2021-05-22,4.501026694045175
1F6K67kS,2,verb,schweben,schweben,target,lower-left,TRUE,2025-11-21T09:02:11Z,5114,2025-11-21,Weiblich,Deutsch;;,2021-05-22,4.501026694045175
1F6K67kS,3,noun,moehre,moehre,target,lower-right,TRUE,2025-11-21T09:02:15Z,2508,2025-11-21,Weiblich,Deutsch;;,2021-05-22,4.501026694045175
1F6K67kS,4,noun,ameise,ameise,target,upper-right,TRUE,2025-11-21T09:02:19Z,3163,2025-11-21,Weiblich,Deutsch;;,2021-05-22,4.501026694045175
1F6K67kS,5,verb,jonglieren,jonglieren,target,upper-right,TRUE,2025-11-21T09:02:24Z,3449,2025-11-21,Weiblich,Deutsch;;,2021-05-22,4.501026694045175
1F6K67kS,6,noun,elch,elch,target,upper-left,TRUE,2025-11-21T09:02:28Z,3335,2025-11-21,Weiblich,Deutsch;;,2021-05-22,4.501026694045175
1F6K67kS,7,noun,chor,chor,target,upper-right,TRUE,2025-11-21T09:02:32Z,2929,2025-11-21,Weiblich,Deutsch;;,2021-05-22,4.501026694045175
1F6K67kS,8,verb,torkeln,huepfen,dist1,lower-left,FALSE,2025-11-21T09:03:10Z,37166,2025-11-21,Weiblich,Deutsch;;,2021-05-22,4.501026694045175
1F6K67kS,9,verb,studieren,marschieren,dist2,upper-left,FALSE,2025-11-21T09:03:17Z,5641,2025-11-21,Weiblich,Deutsch;;,2021-05-22,4.501026694045175
1F6K67kS,10,verb,operieren,impfen,dist1,upper-right,FALSE,2025-11-21T09:03:21Z,3031,2025-11-21,Weiblich,Deutsch;;,2021-05-22,4.501026694045175
1F6K67kS,11,noun,ventilator,ventilator,target,lower-left,TRUE,2025-11-21T09:03:26Z,4426,2025-11-21,Weiblich,Deutsch;;,2021-05-22,4.501026694045175
1F6K67kS,12,verb,waehlen,ueberlegen,dist1,upper-right,FALSE,2025-11-21T09:03:33Z,6120,2025-11-21,Weiblich,Deutsch;;,2021-05-22,4.501026694045175
1F6K67kS,13,noun,rucola,drakula,dist2,upper-left,FALSE,2025-11-21T09:03:40Z,5805,2025-11-21,Weiblich,Deutsch;;,2021-05-22,4.501026694045175
1F6K67kS,14,verb,scheren,scheren,target,upper-right,TRUE,2025-11-21T09:03:45Z,3195,2025-11-21,Weiblich,Deutsch;;,2021-05-22,4.501026694045175
1F6K67kS,15,noun,giraffe,giraffe,target,upper-left,TRUE,2025-11-21T09:03:48Z,2571,2025-11-21,Weiblich,Deutsch;;,2021-05-22,4.501026694045175
1F6K67kS,16,noun,palme,palme,target,lower-left,TRUE,2025-11-21T09:03:53Z,3363,2025-11-21,Weiblich,Deutsch;;,2021-05-22,4.501026694045175
1F6K67kS,17,verb,tadeln,fluestern,dist3,upper-left,FALSE,2025-11-21T09:04:01Z,7343,2025-11-21,Weiblich,Deutsch;;,2021-05-22,4.501026694045175
1F6K67kS,18,noun,ananas,ananas,target,lower-right,TRUE,2025-11-21T09:04:05Z,2981,2025-11-21,Weiblich,Deutsch;;,2021-05-22,4.501026694045175
1F6K67kS,19,verb,empfangen,empfangen,target,lower-right,TRUE,2025-11-21T09:04:12Z,6737,2025-11-21,Weiblich,Deutsch;;,2021-05-22,4.501026694045175
1F6K67kS,20,verb,verloben,verloben,target,upper-left,TRUE,2025-11-21T09:04:20Z,6468,2025-11-21,Weiblich,Deutsch;;,2021-05-22,4.501026694045175
1F6K67kS,21,noun,ozean,fabrik,dist3,upper-right,FALSE,2025-11-21T09:04:25Z,4229,2025-11-21,Weiblich,Deutsch;;,2021-05-22,4.501026694045175
1F6K67kS,22,verb,faulenzen,faulenzen,target,upper-left,TRUE,2025-11-21T09:04:34Z,7097,2025-11-21,Weiblich,Deutsch;;,2021-05-22,4.501026694045175
1F6K67kS,23,noun,gazelle,libelle,dist2,upper-left,FALSE,2025-11-21T09:04:39Z,4191,2025-11-21,Weiblich,Deutsch;;,2021-05-22,4.501026694045175
1F6K67kS,24,verb,liefern,liefern,target,lower-left,TRUE,2025-11-21T09:04:46Z,5521,2025-11-21,Weiblich,Deutsch;;,2021-05-22,4.501026694045175
1F6K67kS,25,noun,pfifferling,pfifferling,target,upper-left,TRUE,2025-11-21T09:04:52Z,5088,2025-11-21,Weiblich,Deutsch;;,2021-05-22,4.501026694045175
1F6K67kS,26,verb,dekorieren,dekorieren,target,upper-right,TRUE,2025-11-21T09:04:57Z,4335,2025-11-21,Weiblich,Deutsch;;,2021-05-22,4.501026694045175
1F6K67kS,27,verb,bekennen,verstecken,dist1,lower-right,FALSE,2025-11-21T09:05:04Z,6205,2025-11-21,Weiblich,Deutsch;;,2021-05-22,4.501026694045175
1F6K67kS,28,noun,ruine,ruine,target,lower-right,TRUE,2025-11-21T09:05:10Z,5050,2025-11-21,Weiblich,Deutsch;;,2021-05-22,4.501026694045175
1F6K67kS,29,noun,labyrinth,wirbelwind,dist2,lower-right,FALSE,2025-11-21T09:05:19Z,7170,2025-11-21,Weiblich,Deutsch;;,2021-05-22,4.501026694045175
1F6K67kS,30,noun,orchidee,banner,dist3,lower-right,FALSE,2025-11-21T09:05:24Z,3891,2025-11-21,Weiblich,Deutsch;;,2021-05-22,4.501026694045175
1F6K67kS,31,verb,schwanken,drehen,dist1,lower-right,FALSE,2025-11-21T09:05:30Z,4731,2025-11-21,Weiblich,Deutsch;;,2021-05-22,4.501026694045175
1F6K67kS,32,noun,zucchini,zucchini,target,upper-right,TRUE,2025-11-21T09:05:34Z,3296,2025-11-21,Weiblich,Deutsch;;,2021-05-22,4.501026694045175
1F6K67kS,33,verb,tuermen,oeffnen,dist3,lower-right,FALSE,2025-11-21T09:05:41Z,6151,2025-11-21,Weiblich,Deutsch;;,2021-05-22,4.501026694045175
1F6K67kS,34,verb,befreien,befreien,target,lower-right,TRUE,2025-11-21T09:05:45Z,2865,2025-11-21,Weiblich,Deutsch;;,2021-05-22,4.501026694045175
1F6K67kS,35,noun,kajak,bumerang,dist3,lower-right,FALSE,2025-11-21T09:05:51Z,4318,2025-11-21,Weiblich,Deutsch;;,2021-05-22,4.501026694045175
1F6K67kS,36,verb,abseilen,abseilen,target,upper-left,TRUE,2025-11-21T09:05:58Z,5361,2025-11-21,Weiblich,Deutsch;;,2021-05-22,4.501026694045175
1F6K67kS,37,verb,tuscheln,tuschen,dist2,upper-right,FALSE,2025-11-21T09:06:04Z,4186,2025-11-21,Weiblich,Deutsch;;,2021-05-22,4.501026694045175
1F6K67kS,38,noun,hummer,mikroskop,dist3,upper-left,FALSE,2025-11-21T09:06:08Z,3612,2025-11-21,Weiblich,Deutsch;;,2021-05-22,4.501026694045175
1F6K67kS,39,noun,nelke,veilchen,dist1,lower-right,FALSE,2025-11-21T09:06:14Z,4217,2025-11-21,Weiblich,Deutsch;;,2021-05-22,4.501026694045175
1F6K67kS,40,verb,betrachten,zeigen,dist1,lower-right,FALSE,2025-11-21T09:06:21Z,5599,2025-11-21,Weiblich,Deutsch;;,2021-05-22,4.501026694045175
1F6K67kS,41,noun,flunder,flunder,target,lower-right,TRUE,2025-11-21T09:06:25Z,3063,2025-11-21,Weiblich,Deutsch;;,2021-05-22,4.501026694045175
1F6K67kS,42,noun,cello,cello,target,lower-left,TRUE,2025-11-21T09:06:29Z,3070,2025-11-21,Weiblich,Deutsch;;,2021-05-22,4.501026694045175
1F6K67kS,1,noun,auge,auge,target,upper-left,TRUE,2026-02-13T09:04:16Z,2504,2026-02-13,Weiblich,Deutsch;;,2021-05-22,4.731006160164271
1F6K67kS,2,verb,schweben,schweben,target,lower-left,TRUE,2026-02-13T09:04:21Z,3581,2026-02-13,Weiblich,Deutsch;;,2021-05-22,4.731006160164271
1F6K67kS,3,noun,moehre,moehre,target,lower-right,TRUE,2026-02-13T09:04:33Z,4545,2026-02-13,Weiblich,Deutsch;;,2021-05-22,4.731006160164271
1F6K67kS,4,noun,ameise,ameise,target,upper-right,TRUE,2026-02-13T09:04:37Z,2799,2026-02-13,Weiblich,Deutsch;;,2021-05-22,4.731006160164271
1F6K67kS,5,verb,jonglieren,jonglieren,target,upper-right,TRUE,2026-02-13T09:04:41Z,2653,2026-02-13,Weiblich,Deutsch;;,2021-05-22,4.731006160164271
1F6K67kS,6,noun,elch,elch,target,upper-left,TRUE,2026-02-13T09:04:47Z,4070,2026-02-13,Weiblich,Deutsch;;,2021-05-22,4.731006160164271
1F6K67kS,7,noun,chor,chor,target,upper-right,TRUE,2026-02-13T09:04:52Z,3051,2026-02-13,Weiblich,Deutsch;;,2021-05-22,4.731006160164271
1F6K67kS,8,verb,torkeln,torkeln,target,upper-left,TRUE,2026-02-13T09:05:00Z,6401,2026-02-13,Weiblich,Deutsch;;,2021-05-22,4.731006160164271
1F6K67kS,9,verb,studieren,studieren,target,lower-right,TRUE,2026-02-13T09:05:06Z,4620,2026-02-13,Weiblich,Deutsch;;,2021-05-22,4.731006160164271
1F6K67kS,10,verb,operieren,operieren,target,lower-left,TRUE,2026-02-13T09:05:11Z,4062,2026-02-13,Weiblich,Deutsch;;,2021-05-22,4.731006160164271
1F6K67kS,11,noun,ventilator,ventilator,target,lower-left,TRUE,2026-02-13T09:05:16Z,3807,2026-02-13,Weiblich,Deutsch;;,2021-05-22,4.731006160164271
1F6K67kS,12,verb,waehlen,ueberlegen,dist1,upper-right,FALSE,2026-02-13T09:05:22Z,4647,2026-02-13,Weiblich,Deutsch;;,2021-05-22,4.731006160164271
1F6K67kS,13,noun,rucola,rucola,target,lower-right,TRUE,2026-02-13T09:05:27Z,3927,2026-02-13,Weiblich,Deutsch;;,2021-05-22,4.731006160164271
1F6K67kS,14,verb,scheren,scheren,target,upper-right,TRUE,2026-02-13T09:05:32Z,4619,2026-02-13,Weiblich,Deutsch;;,2021-05-22,4.731006160164271
1F6K67kS,15,noun,giraffe,giraffe,target,upper-left,TRUE,2026-02-13T09:05:36Z,2436,2026-02-13,Weiblich,Deutsch;;,2021-05-22,4.731006160164271
1F6K67kS,16,noun,palme,palme,target,lower-left,TRUE,2026-02-13T09:05:40Z,3242,2026-02-13,Weiblich,Deutsch;;,2021-05-22,4.731006160164271
1F6K67kS,17,verb,tadeln,loben,dist1,lower-right,FALSE,2026-02-13T09:05:46Z,4895,2026-02-13,Weiblich,Deutsch;;,2021-05-22,4.731006160164271
1F6K67kS,18,noun,ananas,ananas,target,lower-right,TRUE,2026-02-13T09:05:50Z,2253,2026-02-13,Weiblich,Deutsch;;,2021-05-22,4.731006160164271
1F6K67kS,19,verb,empfangen,empfangen,target,lower-right,TRUE,2026-02-13T09:05:54Z,3368,2026-02-13,Weiblich,Deutsch;;,2021-05-22,4.731006160164271
1F6K67kS,20,verb,verloben,verloben,target,upper-left,TRUE,2026-02-13T09:06:00Z,4353,2026-02-13,Weiblich,Deutsch;;,2021-05-22,4.731006160164271
1F6K67kS,21,noun,ozean,fluss,dist1,lower-left,FALSE,2026-02-13T09:06:06Z,4344,2026-02-13,Weiblich,Deutsch;;,2021-05-22,4.731006160164271
1F6K67kS,22,verb,faulenzen,faulenzen,target,upper-left,TRUE,2026-02-13T09:06:11Z,4055,2026-02-13,Weiblich,Deutsch;;,2021-05-22,4.731006160164271
1F6K67kS,23,noun,gazelle,libelle,dist2,upper-left,FALSE,2026-02-13T09:06:15Z,3160,2026-02-13,Weiblich,Deutsch;;,2021-05-22,4.731006160164271
1F6K67kS,24,verb,liefern,liefern,target,lower-left,TRUE,2026-02-13T09:06:22Z,6141,2026-02-13,Weiblich,Deutsch;;,2021-05-22,4.731006160164271
1F6K67kS,25,noun,pfifferling,kastanie,dist1,lower-right,FALSE,2026-02-13T09:06:28Z,3643,2026-02-13,Weiblich,Deutsch;;,2021-05-22,4.731006160164271
1F6K67kS,26,verb,dekorieren,dekorieren,target,upper-right,TRUE,2026-02-13T09:06:32Z,3435,2026-02-13,Weiblich,Deutsch;;,2021-05-22,4.731006160164271
1F6K67kS,27,verb,bekennen,ziehen,dist3,lower-left,FALSE,2026-02-13T09:06:40Z,6464,2026-02-13,Weiblich,Deutsch;;,2021-05-22,4.731006160164271
1F6K67kS,28,noun,ruine,ruine,target,lower-right,TRUE,2026-02-13T09:06:45Z,4031,2026-02-13,Weiblich,Deutsch;;,2021-05-22,4.731006160164271
1F6K67kS,29,noun,labyrinth,wirbelwind,dist2,lower-right,FALSE,2026-02-13T09:06:51Z,4354,2026-02-13,Weiblich,Deutsch;;,2021-05-22,4.731006160164271
1F6K67kS,30,noun,orchidee,orchidee,target,lower-left,TRUE,2026-02-13T09:06:57Z,4409,2026-02-13,Weiblich,Deutsch;;,2021-05-22,4.731006160164271
1F6K67kS,31,verb,schwanken,schenken,dist2,lower-left,FALSE,2026-02-13T09:07:04Z,5908,2026-02-13,Weiblich,Deutsch;;,2021-05-22,4.731006160164271
1F6K67kS,32,noun,zucchini,brokkoli,dist1,lower-right,FALSE,2026-02-13T09:07:09Z,3183,2026-02-13,Weiblich,Deutsch;;,2021-05-22,4.731006160164271
1F6K67kS,33,verb,tuermen,oeffnen,dist3,lower-right,FALSE,2026-02-13T09:07:15Z,5015,2026-02-13,Weiblich,Deutsch;;,2021-05-22,4.731006160164271
1F6K67kS,34,verb,befreien,befreien,target,lower-right,TRUE,2026-02-13T09:07:22Z,5266,2026-02-13,Weiblich,Deutsch;;,2021-05-22,4.731006160164271
1F6K67kS,35,noun,kajak,bumerang,dist3,lower-right,FALSE,2026-02-13T09:07:26Z,2721,2026-02-13,Weiblich,Deutsch;;,2021-05-22,4.731006160164271
1F6K67kS,36,verb,abseilen,abseilen,target,upper-left,TRUE,2026-02-13T09:07:30Z,3808,2026-02-13,Weiblich,Deutsch;;,2021-05-22,4.731006160164271
1F6K67kS,37,verb,tuscheln,tuschen,dist2,upper-right,FALSE,2026-02-13T09:07:35Z,3167,2026-02-13,Weiblich,Deutsch;;,2021-05-22,4.731006160164271
1F6K67kS,38,noun,hummer,hummer,target,upper-right,TRUE,2026-02-13T09:07:39Z,3065,2026-02-13,Weiblich,Deutsch;;,2021-05-22,4.731006160164271
1F6K67kS,39,noun,nelke,nelke,target,upper-right,TRUE,2026-02-13T09:07:42Z,2873,2026-02-13,Weiblich,Deutsch;;,2021-05-22,4.731006160164271
1F6K67kS,40,verb,betrachten,zeigen,dist1,lower-right,FALSE,2026-02-13T09:07:47Z,4370,2026-02-13,Weiblich,Deutsch;;,2021-05-22,4.731006160164271
1F6K67kS,41,noun,flunder,flunder,target,lower-right,TRUE,2026-02-13T09:07:51Z,2695,2026-02-13,Weiblich,Deutsch;;,2021-05-22,4.731006160164271
1F6K67kS,42,noun,cello,cello,target,lower-left,TRUE,2026-02-13T09:07:56Z,4440,2026-02-13,Weiblich,Deutsch;;,2021-05-22,4.731006160164271
1wxZaYFP,1,noun,auge,auge,target,upper-left,TRUE,2025-12-03T13:25:54Z,6169,2025-12-03,Weiblich,Deutsch;;,2020-09-10,5.229295003422314
1wxZaYFP,2,verb,schweben,schweben,target,lower-left,TRUE,2025-12-03T13:26:01Z,5797,2025-12-03,Weiblich,Deutsch;;,2020-09-10,5.229295003422314
1wxZaYFP,3,noun,moehre,moehre,target,lower-right,TRUE,2025-12-03T13:26:05Z,3532,2025-12-03,Weiblich,Deutsch;;,2020-09-10,5.229295003422314
1wxZaYFP,4,noun,ameise,ameise,target,upper-right,TRUE,2025-12-03T13:26:10Z,3928,2025-12-03,Weiblich,Deutsch;;,2020-09-10,5.229295003422314
1wxZaYFP,5,verb,jonglieren,jonglieren,target,upper-right,TRUE,2025-12-03T13:27:13Z,62248,2025-12-03,Weiblich,Deutsch;;,2020-09-10,5.229295003422314
1wxZaYFP,6,noun,elch,elch,target,upper-left,TRUE,2025-12-03T13:27:19Z,4816,2025-12-03,Weiblich,Deutsch;;,2020-09-10,5.229295003422314
1wxZaYFP,7,noun,chor,rohr,dist2,upper-left,FALSE,2025-12-03T13:27:34Z,13948,2025-12-03,Weiblich,Deutsch;;,2020-09-10,5.229295003422314
1wxZaYFP,8,verb,torkeln,torkeln,target,upper-left,TRUE,2025-12-03T13:27:51Z,15822,2025-12-03,Weiblich,Deutsch;;,2020-09-10,5.229295003422314
1wxZaYFP,9,verb,studieren,unterrichten,dist1,upper-right,FALSE,2025-12-03T13:28:14Z,21078,2025-12-03,Weiblich,Deutsch;;,2020-09-10,5.229295003422314
1wxZaYFP,10,verb,operieren,operieren,target,lower-left,TRUE,2025-12-03T13:28:19Z,4081,2025-12-03,Weiblich,Deutsch;;,2020-09-10,5.229295003422314
1wxZaYFP,11,noun,ventilator,ventilator,target,lower-left,TRUE,2025-12-03T13:28:24Z,3433,2025-12-03,Weiblich,Deutsch;;,2020-09-10,5.229295003422314
1wxZaYFP,12,verb,waehlen,waehlen,target,lower-right,TRUE,2025-12-03T13:28:30Z,5327,2025-12-03,Weiblich,Deutsch;;,2020-09-10,5.229295003422314
1wxZaYFP,13,noun,rucola,rosenkohl,dist1,lower-left,FALSE,2025-12-03T13:28:46Z,15607,2025-12-03,Weiblich,Deutsch;;,2020-09-10,5.229295003422314
1wxZaYFP,14,verb,scheren,scheren,target,upper-right,TRUE,2025-12-03T13:28:51Z,3369,2025-12-03,Weiblich,Deutsch;;,2020-09-10,5.229295003422314
1wxZaYFP,15,noun,giraffe,giraffe,target,upper-left,TRUE,2025-12-03T13:28:55Z,3424,2025-12-03,Weiblich,Deutsch;;,2020-09-10,5.229295003422314
1wxZaYFP,16,noun,palme,palme,target,lower-left,TRUE,2025-12-03T13:29:02Z,3142,2025-12-03,Weiblich,Deutsch;;,2020-09-10,5.229295003422314
1wxZaYFP,17,verb,tadeln,radeln,dist2,lower-left,FALSE,2025-12-03T13:29:16Z,13014,2025-12-03,Weiblich,Deutsch;;,2020-09-10,5.229295003422314
1wxZaYFP,18,noun,ananas,ananas,target,lower-right,TRUE,2025-12-03T13:29:20Z,3370,2025-12-03,Weiblich,Deutsch;;,2020-09-10,5.229295003422314
1wxZaYFP,19,verb,empfangen,empfangen,target,lower-right,TRUE,2025-12-03T13:29:29Z,7523,2025-12-03,Weiblich,Deutsch;;,2020-09-10,5.229295003422314
1wxZaYFP,20,verb,verloben,vergeben,dist2,lower-left,FALSE,2025-12-03T13:29:39Z,8674,2025-12-03,Weiblich,Deutsch;;,2020-09-10,5.229295003422314
1wxZaYFP,21,noun,ozean,ozean,target,upper-left,TRUE,2025-12-03T13:29:45Z,4002,2025-12-03,Weiblich,Deutsch;;,2020-09-10,5.229295003422314
1wxZaYFP,22,verb,faulenzen,faulenzen,target,upper-left,TRUE,2025-12-03T13:29:59Z,13208,2025-12-03,Weiblich,Deutsch;;,2020-09-10,5.229295003422314
1wxZaYFP,23,noun,gazelle,libelle,dist2,upper-left,FALSE,2025-12-03T13:30:04Z,4150,2025-12-03,Weiblich,Deutsch;;,2020-09-10,5.229295003422314
1wxZaYFP,24,verb,liefern,liefern,target,lower-left,TRUE,2025-12-03T13:30:11Z,5889,2025-12-03,Weiblich,Deutsch;;,2020-09-10,5.229295003422314
1wxZaYFP,25,noun,pfifferling,pfifferling,target,upper-left,TRUE,2025-12-03T13:30:28Z,16614,2025-12-03,Weiblich,Deutsch;;,2020-09-10,5.229295003422314
1wxZaYFP,26,verb,dekorieren,dekorieren,target,upper-right,TRUE,2025-12-03T13:30:33Z,3698,2025-12-03,Weiblich,Deutsch;;,2020-09-10,5.229295003422314
1wxZaYFP,27,verb,bekennen,ziehen,dist3,lower-left,FALSE,2025-12-03T13:30:41Z,6208,2025-12-03,Weiblich,Deutsch;;,2020-09-10,5.229295003422314
1wxZaYFP,28,noun,ruine,ruine,target,lower-right,TRUE,2025-12-03T13:30:59Z,16385,2025-12-03,Weiblich,Deutsch;;,2020-09-10,5.229295003422314
1wxZaYFP,29,noun,labyrinth,labyrinth,target,lower-left,TRUE,2025-12-03T13:31:07Z,6699,2025-12-03,Weiblich,Deutsch;;,2020-09-10,5.229295003422314
1wxZaYFP,30,noun,orchidee,banner,dist3,lower-right,FALSE,2025-12-03T13:31:20Z,12360,2025-12-03,Weiblich,Deutsch;;,2020-09-10,5.229295003422314
1wxZaYFP,31,verb,schwanken,schenken,dist2,lower-left,FALSE,2025-12-03T13:31:39Z,16262,2025-12-03,Weiblich,Deutsch;;,2020-09-10,5.229295003422314
1wxZaYFP,32,noun,zucchini,bikini,dist2,upper-left,FALSE,2025-12-03T13:31:43Z,2837,2025-12-03,Weiblich,Deutsch;;,2020-09-10,5.229295003422314
1wxZaYFP,33,verb,tuermen,kruemmen,dist2,upper-right,FALSE,2025-12-03T13:31:53Z,7567,2025-12-03,Weiblich,Deutsch;;,2020-09-10,5.229295003422314
1wxZaYFP,34,verb,befreien,befreien,target,lower-right,TRUE,2025-12-03T13:31:58Z,4054,2025-12-03,Weiblich,Deutsch;;,2020-09-10,5.229295003422314
1wxZaYFP,35,noun,kajak,bumerang,dist3,lower-right,FALSE,2025-12-03T13:32:08Z,4876,2025-12-03,Weiblich,Deutsch;;,2020-09-10,5.229295003422314
1wxZaYFP,36,verb,abseilen,abseilen,target,upper-left,TRUE,2025-12-03T13:32:14Z,4402,2025-12-03,Weiblich,Deutsch;;,2020-09-10,5.229295003422314
1wxZaYFP,37,verb,tuscheln,tuschen,dist2,upper-right,FALSE,2025-12-03T13:32:18Z,3212,2025-12-03,Weiblich,Deutsch;;,2020-09-10,5.229295003422314
1wxZaYFP,38,noun,hummer,hummer,target,upper-right,TRUE,2025-12-03T13:32:27Z,8310,2025-12-03,Weiblich,Deutsch;;,2020-09-10,5.229295003422314
1wxZaYFP,39,noun,nelke,nelke,target,upper-right,TRUE,2025-12-03T13:32:39Z,5363,2025-12-03,Weiblich,Deutsch;;,2020-09-10,5.229295003422314
1wxZaYFP,40,verb,betrachten,zeigen,dist1,lower-right,FALSE,2025-12-03T13:32:48Z,6321,2025-12-03,Weiblich,Deutsch;;,2020-09-10,5.229295003422314
1wxZaYFP,41,noun,flunder,flunder,target,lower-right,TRUE,2025-12-03T13:32:55Z,5601,2025-12-03,Weiblich,Deutsch;;,2020-09-10,5.229295003422314
1wxZaYFP,42,noun,cello,harfe,dist1,lower-right,FALSE,2025-12-03T13:33:11Z,15907,2025-12-03,Weiblich,Deutsch;;,2020-09-10,5.229295003422314
1wxZaYFP,1,noun,auge,auge,target,upper-left,TRUE,2026-03-04T13:09:30Z,14082,2026-03-04,Weiblich,Deutsch;;,2020-09-10,5.478439425051334
1wxZaYFP,2,verb,schweben,schweben,target,lower-left,TRUE,2026-03-04T13:09:42Z,10512,2026-03-04,Weiblich,Deutsch;;,2020-09-10,5.478439425051334
1wxZaYFP,3,noun,moehre,moehre,target,lower-right,TRUE,2026-03-04T13:09:48Z,4377,2026-03-04,Weiblich,Deutsch;;,2020-09-10,5.478439425051334
1wxZaYFP,4,noun,ameise,ameise,target,upper-right,TRUE,2026-03-04T13:09:57Z,3205,2026-03-04,Weiblich,Deutsch;;,2020-09-10,5.478439425051334
1wxZaYFP,5,verb,jonglieren,jonglieren,target,upper-right,TRUE,2026-03-04T13:11:14Z,75685,2026-03-04,Weiblich,Deutsch;;,2020-09-10,5.478439425051334
1wxZaYFP,6,noun,elch,elch,target,upper-left,TRUE,2026-03-04T13:11:23Z,6639,2026-03-04,Weiblich,Deutsch;;,2020-09-10,5.478439425051334
1wxZaYFP,7,noun,chor,orchester,dist1,lower-right,FALSE,2026-03-04T13:11:42Z,17344,2026-03-04,Weiblich,Deutsch;;,2020-09-10,5.478439425051334
1wxZaYFP,8,verb,torkeln,schnorcheln,dist2,upper-right,FALSE,2026-03-04T13:12:06Z,23333,2026-03-04,Weiblich,Deutsch;;,2020-09-10,5.478439425051334
1wxZaYFP,9,verb,studieren,studieren,target,lower-right,TRUE,2026-03-04T13:12:15Z,7046,2026-03-04,Weiblich,Deutsch;;,2020-09-10,5.478439425051334
1wxZaYFP,10,verb,operieren,operieren,target,lower-left,TRUE,2026-03-04T13:12:35Z,18487,2026-03-04,Weiblich,Deutsch;;,2020-09-10,5.478439425051334
1wxZaYFP,11,noun,ventilator,ventilator,target,lower-left,TRUE,2026-03-04T13:12:40Z,3431,2026-03-04,Weiblich,Deutsch;;,2020-09-10,5.478439425051334
1wxZaYFP,12,verb,waehlen,waehlen,target,lower-right,TRUE,2026-03-04T13:12:49Z,7740,2026-03-04,Weiblich,Deutsch;;,2020-09-10,5.478439425051334
1wxZaYFP,13,noun,rucola,rosenkohl,dist1,lower-left,FALSE,2026-03-04T13:12:54Z,3547,2026-03-04,Weiblich,Deutsch;;,2020-09-10,5.478439425051334
1wxZaYFP,14,verb,scheren,scheren,target,upper-right,TRUE,2026-03-04T13:13:01Z,4747,2026-03-04,Weiblich,Deutsch;;,2020-09-10,5.478439425051334
1wxZaYFP,15,noun,giraffe,giraffe,target,upper-left,TRUE,2026-03-04T13:13:06Z,4065,2026-03-04,Weiblich,Deutsch;;,2020-09-10,5.478439425051334
1wxZaYFP,16,noun,palme,palme,target,lower-left,TRUE,2026-03-04T13:13:11Z,4228,2026-03-04,Weiblich,Deutsch;;,2020-09-10,5.478439425051334
1wxZaYFP,17,verb,tadeln,fluestern,dist3,upper-left,FALSE,2026-03-04T13:13:37Z,24064,2026-03-04,Weiblich,Deutsch;;,2020-09-10,5.478439425051334
1wxZaYFP,18,noun,ananas,ananas,target,lower-right,TRUE,2026-03-04T13:13:41Z,3167,2026-03-04,Weiblich,Deutsch;;,2020-09-10,5.478439425051334
1wxZaYFP,19,verb,empfangen,einfangen,dist2,upper-left,FALSE,2026-03-04T13:14:03Z,20984,2026-03-04,Weiblich,Deutsch;;,2020-09-10,5.478439425051334
1wxZaYFP,20,verb,verloben,vergeben,dist2,lower-left,FALSE,2026-03-04T13:14:12Z,7041,2026-03-04,Weiblich,Deutsch;;,2020-09-10,5.478439425051334
1wxZaYFP,21,noun,ozean,ozean,target,upper-left,TRUE,2026-03-04T13:14:18Z,4958,2026-03-04,Weiblich,Deutsch;;,2020-09-10,5.478439425051334
1wxZaYFP,22,verb,faulenzen,faulenzen,target,upper-left,TRUE,2026-03-04T13:14:28Z,8065,2026-03-04,Weiblich,Deutsch;;,2020-09-10,5.478439425051334
1wxZaYFP,23,noun,gazelle,gazelle,target,lower-right,TRUE,2026-03-04T13:14:37Z,8310,2026-03-04,Weiblich,Deutsch;;,2020-09-10,5.478439425051334
1wxZaYFP,24,verb,liefern,liefern,target,lower-left,TRUE,2026-03-04T13:14:43Z,4824,2026-03-04,Weiblich,Deutsch;;,2020-09-10,5.478439425051334
1wxZaYFP,25,noun,pfifferling,pfifferling,target,upper-left,TRUE,2026-03-04T13:14:53Z,7891,2026-03-04,Weiblich,Deutsch;;,2020-09-10,5.478439425051334
1wxZaYFP,26,verb,dekorieren,dekorieren,target,upper-right,TRUE,2026-03-04T13:14:58Z,4217,2026-03-04,Weiblich,Deutsch;;,2020-09-10,5.478439425051334
1wxZaYFP,27,verb,bekennen,bekennen,target,upper-left,TRUE,2026-03-04T13:15:10Z,9631,2026-03-04,Weiblich,Deutsch;;,2020-09-10,5.478439425051334
1wxZaYFP,28,noun,ruine,ruine,target,lower-right,TRUE,2026-03-04T13:15:18Z,5866,2026-03-04,Weiblich,Deutsch;;,2020-09-10,5.478439425051334
1wxZaYFP,29,noun,labyrinth,labyrinth,target,lower-left,TRUE,2026-03-04T13:15:24Z,4832,2026-03-04,Weiblich,Deutsch;;,2020-09-10,5.478439425051334
1wxZaYFP,30,noun,orchidee,banner,dist3,lower-right,FALSE,2026-03-04T13:15:31Z,5847,2026-03-04,Weiblich,Deutsch;;,2020-09-10,5.478439425051334
1wxZaYFP,31,verb,schwanken,drehen,dist1,lower-right,FALSE,2026-03-04T13:15:37Z,4253,2026-03-04,Weiblich,Deutsch;;,2020-09-10,5.478439425051334
1wxZaYFP,32,noun,zucchini,bikini,dist2,upper-left,FALSE,2026-03-04T13:15:42Z,3663,2026-03-04,Weiblich,Deutsch;;,2020-09-10,5.478439425051334
1wxZaYFP,33,verb,tuermen,kruemmen,dist2,upper-right,FALSE,2026-03-04T13:15:54Z,10112,2026-03-04,Weiblich,Deutsch;;,2020-09-10,5.478439425051334
1wxZaYFP,34,verb,befreien,befreien,target,lower-right,TRUE,2026-03-04T13:15:59Z,3689,2026-03-04,Weiblich,Deutsch;;,2020-09-10,5.478439425051334
1wxZaYFP,35,noun,kajak,bumerang,dist3,lower-right,FALSE,2026-03-04T13:16:05Z,4436,2026-03-04,Weiblich,Deutsch;;,2020-09-10,5.478439425051334
1wxZaYFP,36,verb,abseilen,abseilen,target,upper-left,TRUE,2026-03-04T13:16:11Z,5035,2026-03-04,Weiblich,Deutsch;;,2020-09-10,5.478439425051334
1wxZaYFP,37,verb,tuscheln,tuschen,dist2,upper-right,FALSE,2026-03-04T13:16:16Z,3256,2026-03-04,Weiblich,Deutsch;;,2020-09-10,5.478439425051334
1wxZaYFP,38,noun,hummer,hummer,target,upper-right,TRUE,2026-03-04T13:16:23Z,5603,2026-03-04,Weiblich,Deutsch;;,2020-09-10,5.478439425051334
1wxZaYFP,39,noun,nelke,nelke,target,upper-right,TRUE,2026-03-04T13:16:30Z,5465,2026-03-04,Weiblich,Deutsch;;,2020-09-10,5.478439425051334
1wxZaYFP,40,verb,betrachten,telefonieren,dist3,upper-left,FALSE,2026-03-04T13:16:40Z,7567,2026-03-04,Weiblich,Deutsch;;,2020-09-10,5.478439425051334
1wxZaYFP,41,noun,flunder,pyramide,dist3,upper-right,FALSE,2026-03-04T13:16:49Z,7443,2026-03-04,Weiblich,Deutsch;;,2020-09-10,5.478439425051334
1wxZaYFP,42,noun,cello,harfe,dist1,lower-right,FALSE,2026-03-04T13:16:55Z,4881,2026-03-04,Weiblich,Deutsch;;,2020-09-10,5.478439425051334
2S6zsJDR,1,noun,auge,auge,target,upper-left,TRUE,2026-02-20T08:49:42Z,2576,2026-02-20,Weiblich,Deutsch;;,2019-11-18,6.2587268993839835
2S6zsJDR,2,verb,schweben,schweben,target,lower-left,TRUE,2026-02-20T08:49:47Z,3955,2026-02-20,Weiblich,Deutsch;;,2019-11-18,6.2587268993839835
2S6zsJDR,3,noun,moehre,moehre,target,lower-right,TRUE,2026-02-20T08:49:50Z,2516,2026-02-20,Weiblich,Deutsch;;,2019-11-18,6.2587268993839835
2S6zsJDR,4,noun,ameise,ameise,target,upper-right,TRUE,2026-02-20T08:49:54Z,2946,2026-02-20,Weiblich,Deutsch;;,2019-11-18,6.2587268993839835
2S6zsJDR,5,verb,jonglieren,jonglieren,target,upper-right,TRUE,2026-02-20T08:50:00Z,4585,2026-02-20,Weiblich,Deutsch;;,2019-11-18,6.2587268993839835
2S6zsJDR,6,noun,elch,elch,target,upper-left,TRUE,2026-02-20T08:50:03Z,2257,2026-02-20,Weiblich,Deutsch;;,2019-11-18,6.2587268993839835
2S6zsJDR,7,noun,chor,chor,target,upper-right,TRUE,2026-02-20T08:50:09Z,4378,2026-02-20,Weiblich,Deutsch;;,2019-11-18,6.2587268993839835
2S6zsJDR,8,verb,torkeln,torkeln,target,upper-left,TRUE,2026-02-20T08:50:18Z,8755,2026-02-20,Weiblich,Deutsch;;,2019-11-18,6.2587268993839835
2S6zsJDR,9,verb,studieren,marschieren,dist2,upper-left,FALSE,2026-02-20T08:50:26Z,6430,2026-02-20,Weiblich,Deutsch;;,2019-11-18,6.2587268993839835
2S6zsJDR,10,verb,operieren,operieren,target,lower-left,TRUE,2026-02-20T08:50:31Z,4140,2026-02-20,Weiblich,Deutsch;;,2019-11-18,6.2587268993839835
2S6zsJDR,11,noun,ventilator,ventilator,target,lower-left,TRUE,2026-02-20T08:50:36Z,3473,2026-02-20,Weiblich,Deutsch;;,2019-11-18,6.2587268993839835
2S6zsJDR,12,verb,waehlen,ueberlegen,dist1,upper-right,FALSE,2026-02-20T08:50:45Z,8344,2026-02-20,Weiblich,Deutsch;;,2019-11-18,6.2587268993839835
2S6zsJDR,13,noun,rucola,rosenkohl,dist1,lower-left,FALSE,2026-02-20T08:50:50Z,3424,2026-02-20,Weiblich,Deutsch;;,2019-11-18,6.2587268993839835
2S6zsJDR,14,verb,scheren,scheren,target,upper-right,TRUE,2026-02-20T08:50:56Z,5085,2026-02-20,Weiblich,Deutsch;;,2019-11-18,6.2587268993839835
2S6zsJDR,15,noun,giraffe,giraffe,target,upper-left,TRUE,2026-02-20T08:51:06Z,2546,2026-02-20,Weiblich,Deutsch;;,2019-11-18,6.2587268993839835
2S6zsJDR,16,noun,palme,palme,target,lower-left,TRUE,2026-02-20T08:51:17Z,9372,2026-02-20,Weiblich,Deutsch;;,2019-11-18,6.2587268993839835
2S6zsJDR,17,verb,tadeln,fluestern,dist3,upper-left,FALSE,2026-02-20T08:51:33Z,15615,2026-02-20,Weiblich,Deutsch;;,2019-11-18,6.2587268993839835
2S6zsJDR,18,noun,ananas,ananas,target,lower-right,TRUE,2026-02-20T08:51:46Z,12011,2026-02-20,Weiblich,Deutsch;;,2019-11-18,6.2587268993839835
2S6zsJDR,19,verb,empfangen,einfangen,dist2,upper-left,FALSE,2026-02-20T08:51:53Z,6419,2026-02-20,Weiblich,Deutsch;;,2019-11-18,6.2587268993839835
2S6zsJDR,20,verb,verloben,heiraten,dist1,lower-right,FALSE,2026-02-20T08:51:59Z,3274,2026-02-20,Weiblich,Deutsch;;,2019-11-18,6.2587268993839835
2S6zsJDR,21,noun,ozean,ozean,target,upper-left,TRUE,2026-02-20T08:52:05Z,3421,2026-02-20,Weiblich,Deutsch;;,2019-11-18,6.2587268993839835
2S6zsJDR,22,verb,faulenzen,faulenzen,target,upper-left,TRUE,2026-02-20T08:52:19Z,11997,2026-02-20,Weiblich,Deutsch;;,2019-11-18,6.2587268993839835
2S6zsJDR,23,noun,gazelle,libelle,dist2,upper-left,FALSE,2026-02-20T08:52:24Z,4452,2026-02-20,Weiblich,Deutsch;;,2019-11-18,6.2587268993839835
2S6zsJDR,24,verb,liefern,liefern,target,lower-left,TRUE,2026-02-20T08:52:30Z,4710,2026-02-20,Weiblich,Deutsch;;,2019-11-18,6.2587268993839835
2S6zsJDR,25,noun,pfifferling,schmetterling,dist2,lower-left,FALSE,2026-02-20T08:52:35Z,3903,2026-02-20,Weiblich,Deutsch;;,2019-11-18,6.2587268993839835
2S6zsJDR,26,verb,dekorieren,dekorieren,target,upper-right,TRUE,2026-02-20T08:52:39Z,3484,2026-02-20,Weiblich,Deutsch;;,2019-11-18,6.2587268993839835
2S6zsJDR,27,verb,bekennen,ziehen,dist3,lower-left,FALSE,2026-02-20T08:53:03Z,22512,2026-02-20,Weiblich,Deutsch;;,2019-11-18,6.2587268993839835
2S6zsJDR,28,noun,ruine,ruine,target,lower-right,TRUE,2026-02-20T08:53:09Z,4314,2026-02-20,Weiblich,Deutsch;;,2019-11-18,6.2587268993839835
2S6zsJDR,29,noun,labyrinth,labyrinth,target,lower-left,TRUE,2026-02-20T08:53:18Z,7391,2026-02-20,Weiblich,Deutsch;;,2019-11-18,6.2587268993839835
2S6zsJDR,30,noun,orchidee,orchidee,target,lower-left,TRUE,2026-02-20T08:53:26Z,7025,2026-02-20,Weiblich,Deutsch;;,2019-11-18,6.2587268993839835
2S6zsJDR,31,verb,schwanken,schwanken,target,upper-right,TRUE,2026-02-20T08:53:32Z,5309,2026-02-20,Weiblich,Deutsch;;,2019-11-18,6.2587268993839835
2S6zsJDR,32,noun,zucchini,zucchini,target,upper-right,TRUE,2026-02-20T08:53:43Z,9430,2026-02-20,Weiblich,Deutsch;;,2019-11-18,6.2587268993839835
2S6zsJDR,33,verb,tuermen,tuermen,target,upper-left,TRUE,2026-02-20T08:53:52Z,7518,2026-02-20,Weiblich,Deutsch;;,2019-11-18,6.2587268993839835
2S6zsJDR,34,verb,befreien,befreien,target,lower-right,TRUE,2026-02-20T08:53:55Z,3380,2026-02-20,Weiblich,Deutsch;;,2019-11-18,6.2587268993839835
2S6zsJDR,35,noun,kajak,kajak,target,upper-left,TRUE,2026-02-20T08:54:03Z,7134,2026-02-20,Weiblich,Deutsch;;,2019-11-18,6.2587268993839835
2S6zsJDR,36,verb,abseilen,abseilen,target,upper-left,TRUE,2026-02-20T08:54:10Z,5373,2026-02-20,Weiblich,Deutsch;;,2019-11-18,6.2587268993839835
2S6zsJDR,37,verb,tuscheln,tuscheln,target,lower-right,TRUE,2026-02-20T08:54:17Z,3820,2026-02-20,Weiblich,Deutsch;;,2019-11-18,6.2587268993839835
2S6zsJDR,38,noun,hummer,hummer,target,upper-right,TRUE,2026-02-20T08:54:23Z,5286,2026-02-20,Weiblich,Deutsch;;,2019-11-18,6.2587268993839835
2S6zsJDR,39,noun,nelke,veilchen,dist1,lower-right,FALSE,2026-02-20T08:54:38Z,13201,2026-02-20,Weiblich,Deutsch;;,2019-11-18,6.2587268993839835
2S6zsJDR,40,verb,betrachten,bewachen,dist2,upper-right,FALSE,2026-02-20T08:54:45Z,5247,2026-02-20,Weiblich,Deutsch;;,2019-11-18,6.2587268993839835
2S6zsJDR,41,noun,flunder,holunder,dist2,upper-left,FALSE,2026-02-20T08:54:58Z,9718,2026-02-20,Weiblich,Deutsch;;,2019-11-18,6.2587268993839835
2S6zsJDR,42,noun,cello,harfe,dist1,lower-right,FALSE,2026-02-20T08:55:13Z,12835,2026-02-20,Weiblich,Deutsch;;,2019-11-18,6.2587268993839835
2vVEzKD7,1,noun,auge,auge,target,upper-left,TRUE,2025-11-24T14:14:20Z,3852,2025-11-24,Männlich,;;,2020-07-07,5.382614647501711
2vVEzKD7,2,verb,schweben,schweben,target,lower-left,TRUE,2025-11-24T14:14:27Z,5932,2025-11-24,Männlich,;;,2020-07-07,5.382614647501711
2vVEzKD7,3,noun,moehre,moehre,target,lower-right,TRUE,2025-11-24T14:14:32Z,3166,2025-11-24,Männlich,;;,2020-07-07,5.382614647501711
2vVEzKD7,4,noun,ameise,ameise,target,upper-right,TRUE,2025-11-24T14:14:36Z,2973,2025-11-24,Männlich,;;,2020-07-07,5.382614647501711
2vVEzKD7,5,verb,jonglieren,jonglieren,target,upper-right,TRUE,2025-11-24T14:14:42Z,3755,2025-11-24,Männlich,;;,2020-07-07,5.382614647501711
2vVEzKD7,6,noun,elch,elch,target,upper-left,TRUE,2025-11-24T14:14:47Z,3888,2025-11-24,Männlich,;;,2020-07-07,5.382614647501711
2vVEzKD7,7,noun,chor,chor,target,upper-right,TRUE,2025-11-24T14:14:58Z,9135,2025-11-24,Männlich,;;,2020-07-07,5.382614647501711
2vVEzKD7,8,verb,torkeln,torkeln,target,upper-left,TRUE,2025-11-24T14:15:08Z,8331,2025-11-24,Männlich,;;,2020-07-07,5.382614647501711
2vVEzKD7,9,verb,studieren,marschieren,dist2,upper-left,FALSE,2025-11-24T14:15:17Z,7151,2025-11-24,Männlich,;;,2020-07-07,5.382614647501711
2vVEzKD7,10,verb,operieren,operieren,target,lower-left,TRUE,2025-11-24T14:15:24Z,6141,2025-11-24,Männlich,;;,2020-07-07,5.382614647501711
2vVEzKD7,11,noun,ventilator,ventilator,target,lower-left,TRUE,2025-11-24T14:15:30Z,3664,2025-11-24,Männlich,;;,2020-07-07,5.382614647501711
2vVEzKD7,12,verb,waehlen,ueberlegen,dist1,upper-right,FALSE,2025-11-24T14:15:38Z,6304,2025-11-24,Männlich,;;,2020-07-07,5.382614647501711
2vVEzKD7,13,noun,rucola,rucola,target,lower-right,TRUE,2025-11-24T14:15:46Z,7492,2025-11-24,Männlich,;;,2020-07-07,5.382614647501711
2vVEzKD7,14,verb,scheren,scheren,target,upper-right,TRUE,2025-11-24T14:15:54Z,5720,2025-11-24,Männlich,;;,2020-07-07,5.382614647501711
2vVEzKD7,15,noun,giraffe,giraffe,target,upper-left,TRUE,2025-11-24T14:16:00Z,4055,2025-11-24,Männlich,;;,2020-07-07,5.382614647501711
2vVEzKD7,16,noun,palme,palme,target,lower-left,TRUE,2025-11-24T14:16:05Z,3231,2025-11-24,Männlich,;;,2020-07-07,5.382614647501711
2vVEzKD7,17,verb,tadeln,radeln,dist2,lower-left,FALSE,2025-11-24T14:16:14Z,7774,2025-11-24,Männlich,;;,2020-07-07,5.382614647501711
2vVEzKD7,18,noun,ananas,ananas,target,lower-right,TRUE,2025-11-24T14:16:19Z,3451,2025-11-24,Männlich,;;,2020-07-07,5.382614647501711
2vVEzKD7,19,verb,empfangen,empfangen,target,lower-right,TRUE,2025-11-24T14:16:33Z,12677,2025-11-24,Männlich,;;,2020-07-07,5.382614647501711
2vVEzKD7,20,verb,verloben,heiraten,dist1,lower-right,FALSE,2025-11-24T14:16:40Z,5549,2025-11-24,Männlich,;;,2020-07-07,5.382614647501711
2vVEzKD7,21,noun,ozean,fabrik,dist3,upper-right,FALSE,2025-11-24T14:16:50Z,7168,2025-11-24,Männlich,;;,2020-07-07,5.382614647501711
2vVEzKD7,22,verb,faulenzen,faulenzen,target,upper-left,TRUE,2025-11-24T14:16:59Z,5623,2025-11-24,Männlich,;;,2020-07-07,5.382614647501711
2vVEzKD7,23,noun,gazelle,libelle,dist2,upper-left,FALSE,2025-11-24T14:17:05Z,3280,2025-11-24,Männlich,;;,2020-07-07,5.382614647501711
2vVEzKD7,24,verb,liefern,liefern,target,lower-left,TRUE,2025-11-24T14:17:13Z,5922,2025-11-24,Männlich,;;,2020-07-07,5.382614647501711
2vVEzKD7,25,noun,pfifferling,pfifferling,target,upper-left,TRUE,2025-11-24T14:17:19Z,4517,2025-11-24,Männlich,;;,2020-07-07,5.382614647501711
2vVEzKD7,26,verb,dekorieren,dekorieren,target,upper-right,TRUE,2025-11-24T14:17:24Z,3468,2025-11-24,Männlich,;;,2020-07-07,5.382614647501711
2vVEzKD7,27,verb,bekennen,verstecken,dist1,lower-right,FALSE,2025-11-24T14:17:33Z,7840,2025-11-24,Männlich,;;,2020-07-07,5.382614647501711
2vVEzKD7,28,noun,ruine,ruine,target,lower-right,TRUE,2025-11-24T14:17:38Z,3052,2025-11-24,Männlich,;;,2020-07-07,5.382614647501711
2vVEzKD7,29,noun,labyrinth,labyrinth,target,lower-left,TRUE,2025-11-24T14:17:43Z,3280,2025-11-24,Männlich,;;,2020-07-07,5.382614647501711
2vVEzKD7,30,noun,orchidee,banner,dist3,lower-right,FALSE,2025-11-24T14:17:50Z,5077,2025-11-24,Männlich,;;,2020-07-07,5.382614647501711
2vVEzKD7,31,verb,schwanken,drehen,dist1,lower-right,FALSE,2025-11-24T14:17:57Z,4897,2025-11-24,Männlich,;;,2020-07-07,5.382614647501711
2vVEzKD7,32,noun,zucchini,zucchini,target,upper-right,TRUE,2025-11-24T14:18:02Z,3319,2025-11-24,Männlich,;;,2020-07-07,5.382614647501711
2vVEzKD7,33,verb,tuermen,tuermen,target,upper-left,TRUE,2025-11-24T14:18:10Z,6313,2025-11-24,Männlich,;;,2020-07-07,5.382614647501711
2vVEzKD7,34,verb,befreien,befreien,target,lower-right,TRUE,2025-11-24T14:18:16Z,4305,2025-11-24,Männlich,;;,2020-07-07,5.382614647501711
2vVEzKD7,35,noun,kajak,bumerang,dist3,lower-right,FALSE,2025-11-24T14:18:23Z,5269,2025-11-24,Männlich,;;,2020-07-07,5.382614647501711
2vVEzKD7,36,verb,abseilen,abseilen,target,upper-left,TRUE,2025-11-24T14:18:27Z,2835,2025-11-24,Männlich,;;,2020-07-07,5.382614647501711
2vVEzKD7,37,verb,tuscheln,tuschen,dist2,upper-right,FALSE,2025-11-24T14:18:33Z,3615,2025-11-24,Männlich,;;,2020-07-07,5.382614647501711
2vVEzKD7,38,noun,hummer,hummer,target,upper-right,TRUE,2025-11-24T14:18:38Z,3441,2025-11-24,Männlich,;;,2020-07-07,5.382614647501711
2vVEzKD7,39,noun,nelke,veilchen,dist1,lower-right,FALSE,2025-11-24T14:18:44Z,4961,2025-11-24,Männlich,;;,2020-07-07,5.382614647501711
2vVEzKD7,40,verb,betrachten,bewachen,dist2,upper-right,FALSE,2025-11-24T14:18:51Z,5487,2025-11-24,Männlich,;;,2020-07-07,5.382614647501711
2vVEzKD7,41,noun,flunder,flunder,target,lower-right,TRUE,2025-11-24T14:18:58Z,4670,2025-11-24,Männlich,;;,2020-07-07,5.382614647501711
2vVEzKD7,42,noun,cello,marshmallow,dist2,upper-right,FALSE,2025-11-24T14:19:06Z,6506,2025-11-24,Männlich,;;,2020-07-07,5.382614647501711
3sY63SUJ,1,noun,auge,auge,target,upper-left,TRUE,2025-12-03T09:14:10Z,7343,2025-12-03,Männlich,Deutsch;;,2020-09-19,5.204654346338125
3sY63SUJ,2,verb,schweben,schweben,target,lower-left,TRUE,2025-12-03T09:14:17Z,5526,2025-12-03,Männlich,Deutsch;;,2020-09-19,5.204654346338125
3sY63SUJ,3,noun,moehre,moehre,target,lower-right,TRUE,2025-12-03T09:14:21Z,2685,2025-12-03,Männlich,Deutsch;;,2020-09-19,5.204654346338125
3sY63SUJ,4,noun,ameise,ameise,target,upper-right,TRUE,2025-12-03T09:14:35Z,2651,2025-12-03,Männlich,Deutsch;;,2020-09-19,5.204654346338125
3sY63SUJ,5,verb,jonglieren,jonglieren,target,upper-right,TRUE,2025-12-03T09:14:39Z,2660,2025-12-03,Männlich,Deutsch;;,2020-09-19,5.204654346338125
3sY63SUJ,6,noun,elch,elch,target,upper-left,TRUE,2025-12-03T09:14:43Z,3108,2025-12-03,Männlich,Deutsch;;,2020-09-19,5.204654346338125
3sY63SUJ,7,noun,chor,chor,target,upper-right,TRUE,2025-12-03T09:14:48Z,3241,2025-12-03,Männlich,Deutsch;;,2020-09-19,5.204654346338125
3sY63SUJ,8,verb,torkeln,torkeln,target,upper-left,TRUE,2025-12-03T09:15:02Z,13202,2025-12-03,Männlich,Deutsch;;,2020-09-19,5.204654346338125
3sY63SUJ,9,verb,studieren,marschieren,dist2,upper-left,FALSE,2025-12-03T09:15:12Z,8295,2025-12-03,Männlich,Deutsch;;,2020-09-19,5.204654346338125
3sY63SUJ,10,verb,operieren,operieren,target,lower-left,TRUE,2025-12-03T09:15:18Z,5389,2025-12-03,Männlich,Deutsch;;,2020-09-19,5.204654346338125
3sY63SUJ,11,noun,ventilator,ventilator,target,lower-left,TRUE,2025-12-03T09:15:22Z,2893,2025-12-03,Männlich,Deutsch;;,2020-09-19,5.204654346338125
3sY63SUJ,12,verb,waehlen,waehlen,target,lower-right,TRUE,2025-12-03T09:15:30Z,6528,2025-12-03,Männlich,Deutsch;;,2020-09-19,5.204654346338125
3sY63SUJ,13,noun,rucola,drakula,dist2,upper-left,FALSE,2025-12-03T09:15:36Z,4907,2025-12-03,Männlich,Deutsch;;,2020-09-19,5.204654346338125
3sY63SUJ,14,verb,scheren,scheren,target,upper-right,TRUE,2025-12-03T09:15:41Z,3889,2025-12-03,Männlich,Deutsch;;,2020-09-19,5.204654346338125
3sY63SUJ,15,noun,giraffe,giraffe,target,upper-left,TRUE,2025-12-03T09:15:44Z,2684,2025-12-03,Männlich,Deutsch;;,2020-09-19,5.204654346338125
3sY63SUJ,16,noun,palme,palme,target,lower-left,TRUE,2025-12-03T09:15:48Z,2780,2025-12-03,Männlich,Deutsch;;,2020-09-19,5.204654346338125
3sY63SUJ,17,verb,tadeln,tadeln,target,upper-right,TRUE,2025-12-03T09:15:58Z,9037,2025-12-03,Männlich,Deutsch;;,2020-09-19,5.204654346338125
3sY63SUJ,18,noun,ananas,ananas,target,lower-right,TRUE,2025-12-03T09:16:02Z,2381,2025-12-03,Männlich,Deutsch;;,2020-09-19,5.204654346338125
3sY63SUJ,19,verb,empfangen,einfangen,dist2,upper-left,FALSE,2025-12-03T09:16:07Z,3759,2025-12-03,Männlich,Deutsch;;,2020-09-19,5.204654346338125
3sY63SUJ,20,verb,verloben,verloben,target,upper-left,TRUE,2025-12-03T09:16:16Z,8463,2025-12-03,Männlich,Deutsch;;,2020-09-19,5.204654346338125
3sY63SUJ,21,noun,ozean,fluss,dist1,lower-left,FALSE,2025-12-03T09:16:23Z,6367,2025-12-03,Männlich,Deutsch;;,2020-09-19,5.204654346338125
3sY63SUJ,22,verb,faulenzen,faulenzen,target,upper-left,TRUE,2025-12-03T09:16:30Z,5105,2025-12-03,Männlich,Deutsch;;,2020-09-19,5.204654346338125
3sY63SUJ,23,noun,gazelle,gazelle,target,lower-right,TRUE,2025-12-03T09:16:35Z,4697,2025-12-03,Männlich,Deutsch;;,2020-09-19,5.204654346338125
3sY63SUJ,24,verb,liefern,liefern,target,lower-left,TRUE,2025-12-03T09:16:40Z,3441,2025-12-03,Männlich,Deutsch;;,2020-09-19,5.204654346338125
3sY63SUJ,25,noun,pfifferling,pfifferling,target,upper-left,TRUE,2025-12-03T09:16:48Z,7431,2025-12-03,Männlich,Deutsch;;,2020-09-19,5.204654346338125
3sY63SUJ,26,verb,dekorieren,dekorieren,target,upper-right,TRUE,2025-12-03T09:16:53Z,3133,2025-12-03,Männlich,Deutsch;;,2020-09-19,5.204654346338125
3sY63SUJ,27,verb,bekennen,bekennen,target,upper-left,TRUE,2025-12-03T09:17:11Z,17448,2025-12-03,Männlich,Deutsch;;,2020-09-19,5.204654346338125
3sY63SUJ,28,noun,ruine,ruine,target,lower-right,TRUE,2025-12-03T09:17:19Z,7001,2025-12-03,Männlich,Deutsch;;,2020-09-19,5.204654346338125
3sY63SUJ,29,noun,labyrinth,labyrinth,target,lower-left,TRUE,2025-12-03T09:17:24Z,3187,2025-12-03,Männlich,Deutsch;;,2020-09-19,5.204654346338125
3sY63SUJ,30,noun,orchidee,orchidee,target,lower-left,TRUE,2025-12-03T09:17:30Z,4959,2025-12-03,Männlich,Deutsch;;,2020-09-19,5.204654346338125
3sY63SUJ,31,verb,schwanken,drehen,dist1,lower-right,FALSE,2025-12-03T09:17:38Z,6537,2025-12-03,Männlich,Deutsch;;,2020-09-19,5.204654346338125
3sY63SUJ,32,noun,zucchini,zucchini,target,upper-right,TRUE,2025-12-03T09:17:42Z,3138,2025-12-03,Männlich,Deutsch;;,2020-09-19,5.204654346338125
3sY63SUJ,33,verb,tuermen,kruemmen,dist2,upper-right,FALSE,2025-12-03T09:17:53Z,10870,2025-12-03,Männlich,Deutsch;;,2020-09-19,5.204654346338125
3sY63SUJ,34,verb,befreien,befreien,target,lower-right,TRUE,2025-12-03T09:17:59Z,3069,2025-12-03,Männlich,Deutsch;;,2020-09-19,5.204654346338125
3sY63SUJ,35,noun,kajak,kajak,target,upper-left,TRUE,2025-12-03T09:18:04Z,4231,2025-12-03,Männlich,Deutsch;;,2020-09-19,5.204654346338125
3sY63SUJ,36,verb,abseilen,abseilen,target,upper-left,TRUE,2025-12-03T09:18:08Z,3105,2025-12-03,Männlich,Deutsch;;,2020-09-19,5.204654346338125
3sY63SUJ,37,verb,tuscheln,tuscheln,target,lower-right,TRUE,2025-12-03T09:18:14Z,4980,2025-12-03,Männlich,Deutsch;;,2020-09-19,5.204654346338125
3sY63SUJ,38,noun,hummer,hummer,target,upper-right,TRUE,2025-12-03T09:18:26Z,10205,2025-12-03,Männlich,Deutsch;;,2020-09-19,5.204654346338125
3sY63SUJ,39,noun,nelke,veilchen,dist1,lower-right,FALSE,2025-12-03T09:18:36Z,9169,2025-12-03,Männlich,Deutsch;;,2020-09-19,5.204654346338125
3sY63SUJ,40,verb,betrachten,bewachen,dist2,upper-right,FALSE,2025-12-03T09:18:41Z,4671,2025-12-03,Männlich,Deutsch;;,2020-09-19,5.204654346338125
3sY63SUJ,41,noun,flunder,holunder,dist2,upper-left,FALSE,2025-12-03T09:18:47Z,4199,2025-12-03,Männlich,Deutsch;;,2020-09-19,5.204654346338125
3sY63SUJ,42,noun,cello,cello,target,lower-left,TRUE,2025-12-03T09:18:52Z,3724,2025-12-03,Männlich,Deutsch;;,2020-09-19,5.204654346338125
3sY63SUJ,1,noun,auge,auge,target,upper-left,TRUE,2026-03-03T08:37:03Z,2678,2026-03-03,Männlich,Deutsch;;,2020-09-19,5.451060917180014
3sY63SUJ,2,verb,schweben,schweben,target,lower-left,TRUE,2026-03-03T08:37:09Z,3948,2026-03-03,Männlich,Deutsch;;,2020-09-19,5.451060917180014
3sY63SUJ,3,noun,moehre,moehre,target,lower-right,TRUE,2026-03-03T08:37:15Z,4706,2026-03-03,Männlich,Deutsch;;,2020-09-19,5.451060917180014
3sY63SUJ,4,noun,ameise,ameise,target,upper-right,TRUE,2026-03-03T08:37:19Z,3119,2026-03-03,Männlich,Deutsch;;,2020-09-19,5.451060917180014
3sY63SUJ,5,verb,jonglieren,jonglieren,target,upper-right,TRUE,2026-03-03T08:37:26Z,4974,2026-03-03,Männlich,Deutsch;;,2020-09-19,5.451060917180014
3sY63SUJ,6,noun,elch,elch,target,upper-left,TRUE,2026-03-03T08:37:30Z,3257,2026-03-03,Männlich,Deutsch;;,2020-09-19,5.451060917180014
3sY63SUJ,7,noun,chor,chor,target,upper-right,TRUE,2026-03-03T08:37:48Z,17003,2026-03-03,Männlich,Deutsch;;,2020-09-19,5.451060917180014
3sY63SUJ,8,verb,torkeln,schnorcheln,dist2,upper-right,FALSE,2026-03-03T08:38:01Z,12043,2026-03-03,Männlich,Deutsch;;,2020-09-19,5.451060917180014
3sY63SUJ,9,verb,studieren,unterrichten,dist1,upper-right,FALSE,2026-03-03T08:38:09Z,5853,2026-03-03,Männlich,Deutsch;;,2020-09-19,5.451060917180014
3sY63SUJ,10,verb,operieren,operieren,target,lower-left,TRUE,2026-03-03T08:38:18Z,6765,2026-03-03,Männlich,Deutsch;;,2020-09-19,5.451060917180014
3sY63SUJ,11,noun,ventilator,ventilator,target,lower-left,TRUE,2026-03-03T08:38:23Z,3795,2026-03-03,Männlich,Deutsch;;,2020-09-19,5.451060917180014
3sY63SUJ,12,verb,waehlen,waehlen,target,lower-right,TRUE,2026-03-03T08:38:30Z,6178,2026-03-03,Männlich,Deutsch;;,2020-09-19,5.451060917180014
3sY63SUJ,13,noun,rucola,drakula,dist2,upper-left,FALSE,2026-03-03T08:38:35Z,3622,2026-03-03,Männlich,Deutsch;;,2020-09-19,5.451060917180014
3sY63SUJ,14,verb,scheren,scheren,target,upper-right,TRUE,2026-03-03T08:38:41Z,5089,2026-03-03,Männlich,Deutsch;;,2020-09-19,5.451060917180014
3sY63SUJ,15,noun,giraffe,giraffe,target,upper-left,TRUE,2026-03-03T08:38:45Z,2404,2026-03-03,Männlich,Deutsch;;,2020-09-19,5.451060917180014
3sY63SUJ,16,noun,palme,palme,target,lower-left,TRUE,2026-03-03T08:38:52Z,6064,2026-03-03,Männlich,Deutsch;;,2020-09-19,5.451060917180014
3sY63SUJ,17,verb,tadeln,radeln,dist2,lower-left,FALSE,2026-03-03T08:38:59Z,6446,2026-03-03,Männlich,Deutsch;;,2020-09-19,5.451060917180014
3sY63SUJ,18,noun,ananas,ananas,target,lower-right,TRUE,2026-03-03T08:39:04Z,2969,2026-03-03,Männlich,Deutsch;;,2020-09-19,5.451060917180014
3sY63SUJ,19,verb,empfangen,einfangen,dist2,upper-left,FALSE,2026-03-03T08:39:13Z,7773,2026-03-03,Männlich,Deutsch;;,2020-09-19,5.451060917180014
3sY63SUJ,20,verb,verloben,vergeben,dist2,lower-left,FALSE,2026-03-03T08:39:25Z,11101,2026-03-03,Männlich,Deutsch;;,2020-09-19,5.451060917180014
3sY63SUJ,21,noun,ozean,fluss,dist1,lower-left,FALSE,2026-03-03T08:39:32Z,5724,2026-03-03,Männlich,Deutsch;;,2020-09-19,5.451060917180014
3sY63SUJ,22,verb,faulenzen,faulenzen,target,upper-left,TRUE,2026-03-03T08:39:37Z,3579,2026-03-03,Männlich,Deutsch;;,2020-09-19,5.451060917180014
3sY63SUJ,23,noun,gazelle,gazelle,target,lower-right,TRUE,2026-03-03T08:39:42Z,2999,2026-03-03,Männlich,Deutsch;;,2020-09-19,5.451060917180014
3sY63SUJ,24,verb,liefern,liefern,target,lower-left,TRUE,2026-03-03T08:39:52Z,8623,2026-03-03,Männlich,Deutsch;;,2020-09-19,5.451060917180014
3sY63SUJ,25,noun,pfifferling,pfifferling,target,upper-left,TRUE,2026-03-03T08:39:59Z,6266,2026-03-03,Männlich,Deutsch;;,2020-09-19,5.451060917180014
3sY63SUJ,26,verb,dekorieren,dekorieren,target,upper-right,TRUE,2026-03-03T08:40:04Z,3382,2026-03-03,Männlich,Deutsch;;,2020-09-19,5.451060917180014
3sY63SUJ,27,verb,bekennen,bekennen,target,upper-left,TRUE,2026-03-03T08:40:11Z,6287,2026-03-03,Männlich,Deutsch;;,2020-09-19,5.451060917180014
3sY63SUJ,28,noun,ruine,ruine,target,lower-right,TRUE,2026-03-03T08:40:17Z,4587,2026-03-03,Männlich,Deutsch;;,2020-09-19,5.451060917180014
3sY63SUJ,29,noun,labyrinth,labyrinth,target,lower-left,TRUE,2026-03-03T08:40:21Z,3210,2026-03-03,Männlich,Deutsch;;,2020-09-19,5.451060917180014
3sY63SUJ,30,noun,orchidee,orchidee,target,lower-left,TRUE,2026-03-03T08:40:27Z,4401,2026-03-03,Männlich,Deutsch;;,2020-09-19,5.451060917180014
3sY63SUJ,31,verb,schwanken,schwanken,target,upper-right,TRUE,2026-03-03T08:40:33Z,4360,2026-03-03,Männlich,Deutsch;;,2020-09-19,5.451060917180014
3sY63SUJ,32,noun,zucchini,zucchini,target,upper-right,TRUE,2026-03-03T08:40:37Z,2767,2026-03-03,Männlich,Deutsch;;,2020-09-19,5.451060917180014
3sY63SUJ,33,verb,tuermen,tuermen,target,upper-left,TRUE,2026-03-03T08:40:42Z,4274,2026-03-03,Männlich,Deutsch;;,2020-09-19,5.451060917180014
3sY63SUJ,34,verb,befreien,befreien,target,lower-right,TRUE,2026-03-03T08:40:47Z,3321,2026-03-03,Männlich,Deutsch;;,2020-09-19,5.451060917180014
3sY63SUJ,35,noun,kajak,rucksack,dist2,upper-right,FALSE,2026-03-03T08:40:53Z,4446,2026-03-03,Männlich,Deutsch;;,2020-09-19,5.451060917180014
3sY63SUJ,36,verb,abseilen,abseilen,target,upper-left,TRUE,2026-03-03T08:40:58Z,4109,2026-03-03,Männlich,Deutsch;;,2020-09-19,5.451060917180014
3sY63SUJ,37,verb,tuscheln,tuscheln,target,lower-right,TRUE,2026-03-03T08:41:04Z,4766,2026-03-03,Männlich,Deutsch;;,2020-09-19,5.451060917180014
3sY63SUJ,38,noun,hummer,mikroskop,dist3,upper-left,FALSE,2026-03-03T08:41:10Z,4515,2026-03-03,Männlich,Deutsch;;,2020-09-19,5.451060917180014
3sY63SUJ,39,noun,nelke,veilchen,dist1,lower-right,FALSE,2026-03-03T08:41:21Z,9731,2026-03-03,Männlich,Deutsch;;,2020-09-19,5.451060917180014
3sY63SUJ,40,verb,betrachten,bewachen,dist2,upper-right,FALSE,2026-03-03T08:41:27Z,4819,2026-03-03,Männlich,Deutsch;;,2020-09-19,5.451060917180014
3sY63SUJ,41,noun,flunder,orca,dist1,lower-left,FALSE,2026-03-03T08:41:33Z,5187,2026-03-03,Männlich,Deutsch;;,2020-09-19,5.451060917180014
3sY63SUJ,42,noun,cello,marshmallow,dist2,upper-right,FALSE,2026-03-03T08:41:39Z,4474,2026-03-03,Männlich,Deutsch;;,2020-09-19,5.451060917180014
3ZJfiK2h,1,noun,auge,auge,target,upper-left,TRUE,2026-02-24T13:57:11Z,3423,2026-02-24,Weiblich,Deutsch;;,2021-01-09,5.125256673511293
3ZJfiK2h,2,verb,schweben,schweben,target,lower-left,TRUE,2026-02-24T13:57:17Z,4609,2026-02-24,Weiblich,Deutsch;;,2021-01-09,5.125256673511293
3ZJfiK2h,3,noun,moehre,moehre,target,lower-right,TRUE,2026-02-24T13:57:20Z,2764,2026-02-24,Weiblich,Deutsch;;,2021-01-09,5.125256673511293
3ZJfiK2h,4,noun,ameise,ameise,target,upper-right,TRUE,2026-02-24T13:57:25Z,3013,2026-02-24,Weiblich,Deutsch;;,2021-01-09,5.125256673511293
3ZJfiK2h,5,verb,jonglieren,jonglieren,target,upper-right,TRUE,2026-02-24T13:57:31Z,4436,2026-02-24,Weiblich,Deutsch;;,2021-01-09,5.125256673511293
3ZJfiK2h,6,noun,elch,elch,target,upper-left,TRUE,2026-02-24T13:57:35Z,3126,2026-02-24,Weiblich,Deutsch;;,2021-01-09,5.125256673511293
3ZJfiK2h,7,noun,chor,chor,target,upper-right,TRUE,2026-02-24T13:57:40Z,4032,2026-02-24,Weiblich,Deutsch;;,2021-01-09,5.125256673511293
3ZJfiK2h,8,verb,torkeln,torkeln,target,upper-left,TRUE,2026-02-24T13:57:48Z,6465,2026-02-24,Weiblich,Deutsch;;,2021-01-09,5.125256673511293
3ZJfiK2h,9,verb,studieren,unterrichten,dist1,upper-right,FALSE,2026-02-24T13:57:54Z,4908,2026-02-24,Weiblich,Deutsch;;,2021-01-09,5.125256673511293
3ZJfiK2h,10,verb,operieren,operieren,target,lower-left,TRUE,2026-02-24T13:58:01Z,4461,2026-02-24,Weiblich,Deutsch;;,2021-01-09,5.125256673511293
3ZJfiK2h,11,noun,ventilator,ventilator,target,lower-left,TRUE,2026-02-24T13:58:06Z,4382,2026-02-24,Weiblich,Deutsch;;,2021-01-09,5.125256673511293
3ZJfiK2h,12,verb,waehlen,waehlen,target,lower-right,TRUE,2026-02-24T13:58:28Z,20725,2026-02-24,Weiblich,Deutsch;;,2021-01-09,5.125256673511293
3ZJfiK2h,13,noun,rucola,drakula,dist2,upper-left,FALSE,2026-02-24T13:58:35Z,4828,2026-02-24,Weiblich,Deutsch;;,2021-01-09,5.125256673511293
3ZJfiK2h,14,verb,scheren,scheren,target,upper-right,TRUE,2026-02-24T13:58:42Z,5437,2026-02-24,Weiblich,Deutsch;;,2021-01-09,5.125256673511293
3ZJfiK2h,15,noun,giraffe,giraffe,target,upper-left,TRUE,2026-02-24T13:58:46Z,2991,2026-02-24,Weiblich,Deutsch;;,2021-01-09,5.125256673511293
3ZJfiK2h,16,noun,palme,palme,target,lower-left,TRUE,2026-02-24T13:58:51Z,3643,2026-02-24,Weiblich,Deutsch;;,2021-01-09,5.125256673511293
3ZJfiK2h,17,verb,tadeln,tadeln,target,upper-right,TRUE,2026-02-24T13:59:03Z,10168,2026-02-24,Weiblich,Deutsch;;,2021-01-09,5.125256673511293
3ZJfiK2h,18,noun,ananas,ananas,target,lower-right,TRUE,2026-02-24T13:59:07Z,3349,2026-02-24,Weiblich,Deutsch;;,2021-01-09,5.125256673511293
3ZJfiK2h,19,verb,empfangen,empfangen,target,lower-right,TRUE,2026-02-24T13:59:17Z,8644,2026-02-24,Weiblich,Deutsch;;,2021-01-09,5.125256673511293
3ZJfiK2h,20,verb,verloben,heiraten,dist1,lower-right,FALSE,2026-02-24T13:59:24Z,5791,2026-02-24,Weiblich,Deutsch;;,2021-01-09,5.125256673511293
3ZJfiK2h,21,noun,ozean,ozean,target,upper-left,TRUE,2026-02-24T13:59:30Z,5271,2026-02-24,Weiblich,Deutsch;;,2021-01-09,5.125256673511293
3ZJfiK2h,22,verb,faulenzen,faulenzen,target,upper-left,TRUE,2026-02-24T13:59:37Z,5220,2026-02-24,Weiblich,Deutsch;;,2021-01-09,5.125256673511293
3ZJfiK2h,23,noun,gazelle,gazelle,target,lower-right,TRUE,2026-02-24T13:59:45Z,6802,2026-02-24,Weiblich,Deutsch;;,2021-01-09,5.125256673511293
3ZJfiK2h,24,verb,liefern,liefern,target,lower-left,TRUE,2026-02-24T13:59:55Z,8501,2026-02-24,Weiblich,Deutsch;;,2021-01-09,5.125256673511293
3ZJfiK2h,25,noun,pfifferling,schmetterling,dist2,lower-left,FALSE,2026-02-24T14:00:04Z,7790,2026-02-24,Weiblich,Deutsch;;,2021-01-09,5.125256673511293
3ZJfiK2h,26,verb,dekorieren,dekorieren,target,upper-right,TRUE,2026-02-24T14:00:10Z,4753,2026-02-24,Weiblich,Deutsch;;,2021-01-09,5.125256673511293
3ZJfiK2h,27,verb,bekennen,ziehen,dist3,lower-left,FALSE,2026-02-24T14:00:23Z,11277,2026-02-24,Weiblich,Deutsch;;,2021-01-09,5.125256673511293
3ZJfiK2h,28,noun,ruine,ruine,target,lower-right,TRUE,2026-02-24T14:00:29Z,5137,2026-02-24,Weiblich,Deutsch;;,2021-01-09,5.125256673511293
3ZJfiK2h,29,noun,labyrinth,labyrinth,target,lower-left,TRUE,2026-02-24T14:00:33Z,2934,2026-02-24,Weiblich,Deutsch;;,2021-01-09,5.125256673511293
3ZJfiK2h,30,noun,orchidee,banner,dist3,lower-right,FALSE,2026-02-24T14:00:41Z,6864,2026-02-24,Weiblich,Deutsch;;,2021-01-09,5.125256673511293
3ZJfiK2h,31,verb,schwanken,drehen,dist1,lower-right,FALSE,2026-02-24T14:00:47Z,4887,2026-02-24,Weiblich,Deutsch;;,2021-01-09,5.125256673511293
3ZJfiK2h,32,noun,zucchini,bikini,dist2,upper-left,FALSE,2026-02-24T14:00:52Z,3430,2026-02-24,Weiblich,Deutsch;;,2021-01-09,5.125256673511293
3ZJfiK2h,33,verb,tuermen,kruemmen,dist2,upper-right,FALSE,2026-02-24T14:00:59Z,5520,2026-02-24,Weiblich,Deutsch;;,2021-01-09,5.125256673511293
3ZJfiK2h,34,verb,befreien,befreien,target,lower-right,TRUE,2026-02-24T14:01:04Z,4249,2026-02-24,Weiblich,Deutsch;;,2021-01-09,5.125256673511293
3ZJfiK2h,35,noun,kajak,kajak,target,upper-left,TRUE,2026-02-24T14:01:11Z,5252,2026-02-24,Weiblich,Deutsch;;,2021-01-09,5.125256673511293
3ZJfiK2h,36,verb,abseilen,abseilen,target,upper-left,TRUE,2026-02-24T14:01:16Z,4054,2026-02-24,Weiblich,Deutsch;;,2021-01-09,5.125256673511293
3ZJfiK2h,37,verb,tuscheln,tuschen,dist2,upper-right,FALSE,2026-02-24T14:01:21Z,3347,2026-02-24,Weiblich,Deutsch;;,2021-01-09,5.125256673511293
3ZJfiK2h,38,noun,hummer,krebs,dist1,lower-right,FALSE,2026-02-24T14:01:26Z,4571,2026-02-24,Weiblich,Deutsch;;,2021-01-09,5.125256673511293
3ZJfiK2h,39,noun,nelke,nelke,target,upper-right,TRUE,2026-02-24T14:01:32Z,4391,2026-02-24,Weiblich,Deutsch;;,2021-01-09,5.125256673511293
3ZJfiK2h,40,verb,betrachten,zeigen,dist1,lower-right,FALSE,2026-02-24T14:01:40Z,6170,2026-02-24,Weiblich,Deutsch;;,2021-01-09,5.125256673511293
3ZJfiK2h,41,noun,flunder,orca,dist1,lower-left,FALSE,2026-02-24T14:02:13Z,32246,2026-02-24,Weiblich,Deutsch;;,2021-01-09,5.125256673511293
3ZJfiK2h,42,noun,cello,harfe,dist1,lower-right,FALSE,2026-02-24T14:02:24Z,8435,2026-02-24,Weiblich,Deutsch;;,2021-01-09,5.125256673511293
3zN7M4pT,1,noun,auge,auge,target,upper-left,TRUE,2026-01-14T13:23:59Z,2735,2026-01-14,Weiblich,Deutsch;;,2021-02-07,4.933607118412047
3zN7M4pT,2,verb,schweben,schweben,target,lower-left,TRUE,2026-01-14T13:24:05Z,3903,2026-01-14,Weiblich,Deutsch;;,2021-02-07,4.933607118412047
3zN7M4pT,3,noun,moehre,moehre,target,lower-right,TRUE,2026-01-14T13:24:09Z,2623,2026-01-14,Weiblich,Deutsch;;,2021-02-07,4.933607118412047
3zN7M4pT,4,noun,ameise,ameise,target,upper-right,TRUE,2026-01-14T13:24:15Z,3343,2026-01-14,Weiblich,Deutsch;;,2021-02-07,4.933607118412047
3zN7M4pT,5,verb,jonglieren,jonglieren,target,upper-right,TRUE,2026-01-14T13:24:20Z,3134,2026-01-14,Weiblich,Deutsch;;,2021-02-07,4.933607118412047
3zN7M4pT,6,noun,elch,elch,target,upper-left,TRUE,2026-01-14T13:24:26Z,4217,2026-01-14,Weiblich,Deutsch;;,2021-02-07,4.933607118412047
3zN7M4pT,7,noun,chor,chor,target,upper-right,TRUE,2026-01-14T13:24:30Z,2769,2026-01-14,Weiblich,Deutsch;;,2021-02-07,4.933607118412047
3zN7M4pT,8,verb,torkeln,torkeln,target,upper-left,TRUE,2026-01-14T13:24:40Z,7575,2026-01-14,Weiblich,Deutsch;;,2021-02-07,4.933607118412047
3zN7M4pT,9,verb,studieren,marschieren,dist2,upper-left,FALSE,2026-01-14T13:24:46Z,4389,2026-01-14,Weiblich,Deutsch;;,2021-02-07,4.933607118412047
3zN7M4pT,10,verb,operieren,operieren,target,lower-left,TRUE,2026-01-14T13:24:50Z,2947,2026-01-14,Weiblich,Deutsch;;,2021-02-07,4.933607118412047
3zN7M4pT,11,noun,ventilator,ventilator,target,lower-left,TRUE,2026-01-14T13:24:55Z,3653,2026-01-14,Weiblich,Deutsch;;,2021-02-07,4.933607118412047
3zN7M4pT,12,verb,waehlen,ueberlegen,dist1,upper-right,FALSE,2026-01-14T13:25:00Z,4198,2026-01-14,Weiblich,Deutsch;;,2021-02-07,4.933607118412047
3zN7M4pT,13,noun,rucola,drakula,dist2,upper-left,FALSE,2026-01-14T13:25:05Z,3576,2026-01-14,Weiblich,Deutsch;;,2021-02-07,4.933607118412047
3zN7M4pT,14,verb,scheren,scheren,target,upper-right,TRUE,2026-01-14T13:25:13Z,5855,2026-01-14,Weiblich,Deutsch;;,2021-02-07,4.933607118412047
3zN7M4pT,15,noun,giraffe,giraffe,target,upper-left,TRUE,2026-01-14T13:25:17Z,2671,2026-01-14,Weiblich,Deutsch;;,2021-02-07,4.933607118412047
3zN7M4pT,16,noun,palme,palme,target,lower-left,TRUE,2026-01-14T13:25:22Z,4176,2026-01-14,Weiblich,Deutsch;;,2021-02-07,4.933607118412047
3zN7M4pT,17,verb,tadeln,tadeln,target,upper-right,TRUE,2026-01-14T13:25:32Z,7604,2026-01-14,Weiblich,Deutsch;;,2021-02-07,4.933607118412047
3zN7M4pT,18,noun,ananas,wassermelone,dist1,lower-left,FALSE,2026-01-14T13:25:37Z,3210,2026-01-14,Weiblich,Deutsch;;,2021-02-07,4.933607118412047
3zN7M4pT,19,verb,empfangen,empfangen,target,lower-right,TRUE,2026-01-14T13:25:44Z,6029,2026-01-14,Weiblich,Deutsch;;,2021-02-07,4.933607118412047
3zN7M4pT,20,verb,verloben,verloben,target,upper-left,TRUE,2026-01-14T13:25:50Z,5455,2026-01-14,Weiblich,Deutsch;;,2021-02-07,4.933607118412047
3zN7M4pT,21,noun,ozean,fluss,dist1,lower-left,FALSE,2026-01-14T13:25:56Z,3989,2026-01-14,Weiblich,Deutsch;;,2021-02-07,4.933607118412047
3zN7M4pT,22,verb,faulenzen,faulenzen,target,upper-left,TRUE,2026-01-14T13:26:03Z,5931,2026-01-14,Weiblich,Deutsch;;,2021-02-07,4.933607118412047
3zN7M4pT,23,noun,gazelle,libelle,dist2,upper-left,FALSE,2026-01-14T13:26:11Z,5108,2026-01-14,Weiblich,Deutsch;;,2021-02-07,4.933607118412047
3zN7M4pT,24,verb,liefern,liefern,target,lower-left,TRUE,2026-01-14T13:26:17Z,5313,2026-01-14,Weiblich,Deutsch;;,2021-02-07,4.933607118412047
3zN7M4pT,25,noun,pfifferling,pfifferling,target,upper-left,TRUE,2026-01-14T13:26:26Z,7436,2026-01-14,Weiblich,Deutsch;;,2021-02-07,4.933607118412047
3zN7M4pT,26,verb,dekorieren,dekorieren,target,upper-right,TRUE,2026-01-14T13:26:31Z,3371,2026-01-14,Weiblich,Deutsch;;,2021-02-07,4.933607118412047
3zN7M4pT,27,verb,bekennen,bekennen,target,upper-left,TRUE,2026-01-14T13:26:38Z,5094,2026-01-14,Weiblich,Deutsch;;,2021-02-07,4.933607118412047
3zN7M4pT,28,noun,ruine,ruine,target,lower-right,TRUE,2026-01-14T13:26:43Z,4039,2026-01-14,Weiblich,Deutsch;;,2021-02-07,4.933607118412047
3zN7M4pT,29,noun,labyrinth,labyrinth,target,lower-left,TRUE,2026-01-14T13:26:47Z,2767,2026-01-14,Weiblich,Deutsch;;,2021-02-07,4.933607118412047
3zN7M4pT,30,noun,orchidee,banner,dist3,lower-right,FALSE,2026-01-14T13:26:53Z,4171,2026-01-14,Weiblich,Deutsch;;,2021-02-07,4.933607118412047
3zN7M4pT,31,verb,schwanken,drehen,dist1,lower-right,FALSE,2026-01-14T13:27:01Z,5338,2026-01-14,Weiblich,Deutsch;;,2021-02-07,4.933607118412047
3zN7M4pT,32,noun,zucchini,zucchini,target,upper-right,TRUE,2026-01-14T13:27:06Z,3702,2026-01-14,Weiblich,Deutsch;;,2021-02-07,4.933607118412047
3zN7M4pT,33,verb,tuermen,tuermen,target,upper-left,TRUE,2026-01-14T13:27:11Z,4304,2026-01-14,Weiblich,Deutsch;;,2021-02-07,4.933607118412047
3zN7M4pT,34,verb,befreien,befreien,target,lower-right,TRUE,2026-01-14T13:27:18Z,6002,2026-01-14,Weiblich,Deutsch;;,2021-02-07,4.933607118412047
3zN7M4pT,35,noun,kajak,kajak,target,upper-left,TRUE,2026-01-14T13:27:24Z,4569,2026-01-14,Weiblich,Deutsch;;,2021-02-07,4.933607118412047
3zN7M4pT,36,verb,abseilen,abseilen,target,upper-left,TRUE,2026-01-14T13:27:29Z,3012,2026-01-14,Weiblich,Deutsch;;,2021-02-07,4.933607118412047
3zN7M4pT,37,verb,tuscheln,verpetzen,dist1,lower-left,FALSE,2026-01-14T13:27:35Z,4227,2026-01-14,Weiblich,Deutsch;;,2021-02-07,4.933607118412047
3zN7M4pT,38,noun,hummer,hummer,target,upper-right,TRUE,2026-01-14T13:27:40Z,4172,2026-01-14,Weiblich,Deutsch;;,2021-02-07,4.933607118412047
3zN7M4pT,39,noun,nelke,nelke,target,upper-right,TRUE,2026-01-14T13:27:45Z,4073,2026-01-14,Weiblich,Deutsch;;,2021-02-07,4.933607118412047
3zN7M4pT,40,verb,betrachten,betrachten,target,lower-left,TRUE,2026-01-14T13:27:51Z,4834,2026-01-14,Weiblich,Deutsch;;,2021-02-07,4.933607118412047
3zN7M4pT,41,noun,flunder,flunder,target,lower-right,TRUE,2026-01-14T13:27:59Z,5830,2026-01-14,Weiblich,Deutsch;;,2021-02-07,4.933607118412047
3zN7M4pT,42,noun,cello,harfe,dist1,lower-right,FALSE,2026-01-14T13:28:04Z,4634,2026-01-14,Weiblich,Deutsch;;,2021-02-07,4.933607118412047
3zN7M4pT,1,noun,auge,auge,target,upper-left,TRUE,2026-04-27T12:11:45Z,3503,2026-04-27,Weiblich,Deutsch;;,2021-02-07,5.215605749486653
3zN7M4pT,2,verb,schweben,schweben,target,lower-left,TRUE,2026-04-27T12:11:52Z,3961,2026-04-27,Weiblich,Deutsch;;,2021-02-07,5.215605749486653
3zN7M4pT,3,noun,moehre,moehre,target,lower-right,TRUE,2026-04-27T12:11:57Z,2780,2026-04-27,Weiblich,Deutsch;;,2021-02-07,5.215605749486653
3zN7M4pT,4,noun,ameise,ameise,target,upper-right,TRUE,2026-04-27T12:12:01Z,2564,2026-04-27,Weiblich,Deutsch;;,2021-02-07,5.215605749486653
3zN7M4pT,5,verb,jonglieren,jonglieren,target,upper-right,TRUE,2026-04-27T12:12:06Z,3166,2026-04-27,Weiblich,Deutsch;;,2021-02-07,5.215605749486653
3zN7M4pT,6,noun,elch,elch,target,upper-left,TRUE,2026-04-27T12:12:11Z,3608,2026-04-27,Weiblich,Deutsch;;,2021-02-07,5.215605749486653
3zN7M4pT,7,noun,chor,chor,target,upper-right,TRUE,2026-04-27T12:12:17Z,3960,2026-04-27,Weiblich,Deutsch;;,2021-02-07,5.215605749486653
3zN7M4pT,8,verb,torkeln,schnorcheln,dist2,upper-right,FALSE,2026-04-27T12:12:27Z,7613,2026-04-27,Weiblich,Deutsch;;,2021-02-07,5.215605749486653
3zN7M4pT,9,verb,studieren,marschieren,dist2,upper-left,FALSE,2026-04-27T12:12:34Z,5618,2026-04-27,Weiblich,Deutsch;;,2021-02-07,5.215605749486653
3zN7M4pT,10,verb,operieren,impfen,dist1,upper-right,FALSE,2026-04-27T12:12:42Z,5768,2026-04-27,Weiblich,Deutsch;;,2021-02-07,5.215605749486653
3zN7M4pT,11,noun,ventilator,ventilator,target,lower-left,TRUE,2026-04-27T12:12:47Z,3411,2026-04-27,Weiblich,Deutsch;;,2021-02-07,5.215605749486653
3zN7M4pT,12,verb,waehlen,ueberlegen,dist1,upper-right,FALSE,2026-04-27T12:12:53Z,4195,2026-04-27,Weiblich,Deutsch;;,2021-02-07,5.215605749486653
3zN7M4pT,13,noun,rucola,drakula,dist2,upper-left,FALSE,2026-04-27T12:12:58Z,3693,2026-04-27,Weiblich,Deutsch;;,2021-02-07,5.215605749486653
3zN7M4pT,14,verb,scheren,scheren,target,upper-right,TRUE,2026-04-27T12:13:03Z,4206,2026-04-27,Weiblich,Deutsch;;,2021-02-07,5.215605749486653
3zN7M4pT,15,noun,giraffe,giraffe,target,upper-left,TRUE,2026-04-27T12:13:07Z,2580,2026-04-27,Weiblich,Deutsch;;,2021-02-07,5.215605749486653
3zN7M4pT,16,noun,palme,kaktus,dist1,upper-right,FALSE,2026-04-27T12:13:11Z,3250,2026-04-27,Weiblich,Deutsch;;,2021-02-07,5.215605749486653
3zN7M4pT,17,verb,tadeln,tadeln,target,upper-right,TRUE,2026-04-27T12:13:23Z,10780,2026-04-27,Weiblich,Deutsch;;,2021-02-07,5.215605749486653
3zN7M4pT,18,noun,ananas,ananas,target,lower-right,TRUE,2026-04-27T12:13:27Z,2733,2026-04-27,Weiblich,Deutsch;;,2021-02-07,5.215605749486653
3zN7M4pT,19,verb,empfangen,verschicken,dist1,lower-left,FALSE,2026-04-27T12:13:32Z,3843,2026-04-27,Weiblich,Deutsch;;,2021-02-07,5.215605749486653
3zN7M4pT,20,verb,verloben,verloben,target,upper-left,TRUE,2026-04-27T12:13:39Z,5857,2026-04-27,Weiblich,Deutsch;;,2021-02-07,5.215605749486653
3zN7M4pT,21,noun,ozean,ozean,target,upper-left,TRUE,2026-04-27T12:13:49Z,7745,2026-04-27,Weiblich,Deutsch;;,2021-02-07,5.215605749486653
3zN7M4pT,22,verb,faulenzen,faulenzen,target,upper-left,TRUE,2026-04-27T12:13:56Z,6256,2026-04-27,Weiblich,Deutsch;;,2021-02-07,5.215605749486653
3zN7M4pT,23,noun,gazelle,gazelle,target,lower-right,TRUE,2026-04-27T12:14:03Z,4808,2026-04-27,Weiblich,Deutsch;;,2021-02-07,5.215605749486653
3zN7M4pT,24,verb,liefern,liefern,target,lower-left,TRUE,2026-04-27T12:14:11Z,6469,2026-04-27,Weiblich,Deutsch;;,2021-02-07,5.215605749486653
3zN7M4pT,25,noun,pfifferling,diamant,dist3,upper-right,FALSE,2026-04-27T12:14:18Z,6728,2026-04-27,Weiblich,Deutsch;;,2021-02-07,5.215605749486653
3zN7M4pT,26,verb,dekorieren,dekorieren,target,upper-right,TRUE,2026-04-27T12:14:23Z,3522,2026-04-27,Weiblich,Deutsch;;,2021-02-07,5.215605749486653
3zN7M4pT,27,verb,bekennen,bekennen,target,upper-left,TRUE,2026-04-27T12:14:37Z,12323,2026-04-27,Weiblich,Deutsch;;,2021-02-07,5.215605749486653
3zN7M4pT,28,noun,ruine,ruine,target,lower-right,TRUE,2026-04-27T12:14:42Z,3855,2026-04-27,Weiblich,Deutsch;;,2021-02-07,5.215605749486653
3zN7M4pT,29,noun,labyrinth,labyrinth,target,lower-left,TRUE,2026-04-27T12:14:46Z,3341,2026-04-27,Weiblich,Deutsch;;,2021-02-07,5.215605749486653
3zN7M4pT,30,noun,orchidee,banner,dist3,lower-right,FALSE,2026-04-27T12:14:51Z,3822,2026-04-27,Weiblich,Deutsch;;,2021-02-07,5.215605749486653
3zN7M4pT,31,verb,schwanken,schwanken,target,upper-right,TRUE,2026-04-27T12:15:12Z,19552,2026-04-27,Weiblich,Deutsch;;,2021-02-07,5.215605749486653
3zN7M4pT,32,noun,zucchini,zucchini,target,upper-right,TRUE,2026-04-27T12:15:17Z,3921,2026-04-27,Weiblich,Deutsch;;,2021-02-07,5.215605749486653
3zN7M4pT,33,verb,tuermen,tuermen,target,upper-left,TRUE,2026-04-27T12:15:24Z,5531,2026-04-27,Weiblich,Deutsch;;,2021-02-07,5.215605749486653
3zN7M4pT,34,verb,befreien,befreien,target,lower-right,TRUE,2026-04-27T12:15:30Z,4644,2026-04-27,Weiblich,Deutsch;;,2021-02-07,5.215605749486653
3zN7M4pT,35,noun,kajak,kajak,target,upper-left,TRUE,2026-04-27T12:15:35Z,4501,2026-04-27,Weiblich,Deutsch;;,2021-02-07,5.215605749486653
3zN7M4pT,36,verb,abseilen,abseilen,target,upper-left,TRUE,2026-04-27T12:15:40Z,3564,2026-04-27,Weiblich,Deutsch;;,2021-02-07,5.215605749486653
3zN7M4pT,37,verb,tuscheln,singen,dist3,upper-left,FALSE,2026-04-27T12:15:49Z,7688,2026-04-27,Weiblich,Deutsch;;,2021-02-07,5.215605749486653
3zN7M4pT,38,noun,hummer,hummer,target,upper-right,TRUE,2026-04-27T12:15:56Z,4669,2026-04-27,Weiblich,Deutsch;;,2021-02-07,5.215605749486653
3zN7M4pT,39,noun,nelke,veilchen,dist1,lower-right,FALSE,2026-04-27T12:16:03Z,5715,2026-04-27,Weiblich,Deutsch;;,2021-02-07,5.215605749486653
3zN7M4pT,40,verb,betrachten,bewachen,dist2,upper-right,FALSE,2026-04-27T12:16:10Z,6008,2026-04-27,Weiblich,Deutsch;;,2021-02-07,5.215605749486653
3zN7M4pT,41,noun,flunder,pyramide,dist3,upper-right,FALSE,2026-04-27T12:16:16Z,4437,2026-04-27,Weiblich,Deutsch;;,2021-02-07,5.215605749486653
3zN7M4pT,42,noun,cello,harfe,dist1,lower-right,FALSE,2026-04-27T12:16:25Z,7933,2026-04-27,Weiblich,Deutsch;;,2021-02-07,5.215605749486653
4Ns4GwsF,1,noun,auge,auge,target,upper-left,TRUE,2025-11-28T12:28:22Z,2917,2025-11-28,Weiblich,Deutsch;;,2019-12-17,5.949349760438056
4Ns4GwsF,2,verb,schweben,schweben,target,lower-left,TRUE,2025-11-28T12:28:30Z,7301,2025-11-28,Weiblich,Deutsch;;,2019-12-17,5.949349760438056
4Ns4GwsF,3,noun,moehre,moehre,target,lower-right,TRUE,2025-11-28T12:28:35Z,4008,2025-11-28,Weiblich,Deutsch;;,2019-12-17,5.949349760438056
4Ns4GwsF,4,noun,ameise,ameise,target,upper-right,TRUE,2025-11-28T12:28:40Z,3270,2025-11-28,Weiblich,Deutsch;;,2019-12-17,5.949349760438056
4Ns4GwsF,5,verb,jonglieren,jonglieren,target,upper-right,TRUE,2025-11-28T12:28:45Z,3232,2025-11-28,Weiblich,Deutsch;;,2019-12-17,5.949349760438056
4Ns4GwsF,6,noun,elch,elch,target,upper-left,TRUE,2025-11-28T12:28:49Z,3591,2025-11-28,Weiblich,Deutsch;;,2019-12-17,5.949349760438056
4Ns4GwsF,7,noun,chor,orchester,dist1,lower-right,FALSE,2025-11-28T12:28:58Z,7239,2025-11-28,Weiblich,Deutsch;;,2019-12-17,5.949349760438056
4Ns4GwsF,8,verb,torkeln,schnorcheln,dist2,upper-right,FALSE,2025-11-28T12:29:10Z,9289,2025-11-28,Weiblich,Deutsch;;,2019-12-17,5.949349760438056
4Ns4GwsF,9,verb,studieren,unterrichten,dist1,upper-right,FALSE,2025-11-28T12:29:21Z,10080,2025-11-28,Weiblich,Deutsch;;,2019-12-17,5.949349760438056
4Ns4GwsF,10,verb,operieren,operieren,target,lower-left,TRUE,2025-11-28T12:29:26Z,3929,2025-11-28,Weiblich,Deutsch;;,2019-12-17,5.949349760438056
4Ns4GwsF,11,noun,ventilator,ventilator,target,lower-left,TRUE,2025-11-28T12:29:33Z,4983,2025-11-28,Weiblich,Deutsch;;,2019-12-17,5.949349760438056
4Ns4GwsF,12,verb,waehlen,ueberlegen,dist1,upper-right,FALSE,2025-11-28T12:29:44Z,9104,2025-11-28,Weiblich,Deutsch;;,2019-12-17,5.949349760438056
4Ns4GwsF,13,noun,rucola,rosenkohl,dist1,lower-left,FALSE,2025-11-28T12:29:54Z,8734,2025-11-28,Weiblich,Deutsch;;,2019-12-17,5.949349760438056
4Ns4GwsF,14,verb,scheren,scheren,target,upper-right,TRUE,2025-11-28T12:30:01Z,4874,2025-11-28,Weiblich,Deutsch;;,2019-12-17,5.949349760438056
4Ns4GwsF,15,noun,giraffe,giraffe,target,upper-left,TRUE,2025-11-28T12:30:05Z,2973,2025-11-28,Weiblich,Deutsch;;,2019-12-17,5.949349760438056
4Ns4GwsF,16,noun,palme,palme,target,lower-left,TRUE,2025-11-28T12:30:10Z,4074,2025-11-28,Weiblich,Deutsch;;,2019-12-17,5.949349760438056
4Ns4GwsF,17,verb,tadeln,tadeln,target,upper-right,TRUE,2025-11-28T12:30:22Z,9621,2025-11-28,Weiblich,Deutsch;;,2019-12-17,5.949349760438056
4Ns4GwsF,18,noun,ananas,ananas,target,lower-right,TRUE,2025-11-28T12:30:27Z,3629,2025-11-28,Weiblich,Deutsch;;,2019-12-17,5.949349760438056
4Ns4GwsF,19,verb,empfangen,einfangen,dist2,upper-left,FALSE,2025-11-28T12:30:37Z,8370,2025-11-28,Weiblich,Deutsch;;,2019-12-17,5.949349760438056
4Ns4GwsF,20,verb,verloben,heiraten,dist1,lower-right,FALSE,2025-11-28T12:30:43Z,4686,2025-11-28,Weiblich,Deutsch;;,2019-12-17,5.949349760438056
4Ns4GwsF,21,noun,ozean,ozean,target,upper-left,TRUE,2025-11-28T12:30:53Z,7904,2025-11-28,Weiblich,Deutsch;;,2019-12-17,5.949349760438056
4Ns4GwsF,22,verb,faulenzen,faulenzen,target,upper-left,TRUE,2025-11-28T12:31:05Z,9874,2025-11-28,Weiblich,Deutsch;;,2019-12-17,5.949349760438056
4Ns4GwsF,23,noun,gazelle,reh,dist1,upper-right,FALSE,2025-11-28T12:31:16Z,10080,2025-11-28,Weiblich,Deutsch;;,2019-12-17,5.949349760438056
4Ns4GwsF,24,verb,liefern,liefern,target,lower-left,TRUE,2025-11-28T12:31:22Z,4252,2025-11-28,Weiblich,Deutsch;;,2019-12-17,5.949349760438056
4Ns4GwsF,25,noun,pfifferling,pfifferling,target,upper-left,TRUE,2025-11-28T12:31:30Z,5999,2025-11-28,Weiblich,Deutsch;;,2019-12-17,5.949349760438056
4Ns4GwsF,26,verb,dekorieren,dekorieren,target,upper-right,TRUE,2025-11-28T12:31:39Z,7371,2025-11-28,Weiblich,Deutsch;;,2019-12-17,5.949349760438056
4Ns4GwsF,27,verb,bekennen,bekennen,target,upper-left,TRUE,2025-11-28T12:31:49Z,8696,2025-11-28,Weiblich,Deutsch;;,2019-12-17,5.949349760438056
4Ns4GwsF,28,noun,ruine,ruine,target,lower-right,TRUE,2025-11-28T12:31:58Z,7626,2025-11-28,Weiblich,Deutsch;;,2019-12-17,5.949349760438056
4Ns4GwsF,29,noun,labyrinth,labyrinth,target,lower-left,TRUE,2025-11-28T12:32:04Z,4619,2025-11-28,Weiblich,Deutsch;;,2019-12-17,5.949349760438056
4Ns4GwsF,30,noun,orchidee,orchidee,target,lower-left,TRUE,2025-11-28T12:32:10Z,3995,2025-11-28,Weiblich,Deutsch;;,2019-12-17,5.949349760438056
4Ns4GwsF,31,verb,schwanken,schwanken,target,upper-right,TRUE,2025-11-28T12:32:18Z,6091,2025-11-28,Weiblich,Deutsch;;,2019-12-17,5.949349760438056
4Ns4GwsF,32,noun,zucchini,zucchini,target,upper-right,TRUE,2025-11-28T12:32:23Z,4113,2025-11-28,Weiblich,Deutsch;;,2019-12-17,5.949349760438056
4Ns4GwsF,33,verb,tuermen,tuermen,target,upper-left,TRUE,2025-11-28T12:32:34Z,9187,2025-11-28,Weiblich,Deutsch;;,2019-12-17,5.949349760438056
4Ns4GwsF,34,verb,befreien,befreien,target,lower-right,TRUE,2025-11-28T12:32:40Z,4856,2025-11-28,Weiblich,Deutsch;;,2019-12-17,5.949349760438056
4Ns4GwsF,35,noun,kajak,kajak,target,upper-left,TRUE,2025-11-28T12:32:45Z,3823,2025-11-28,Weiblich,Deutsch;;,2019-12-17,5.949349760438056
4Ns4GwsF,36,verb,abseilen,abseilen,target,upper-left,TRUE,2025-11-28T12:32:50Z,3116,2025-11-28,Weiblich,Deutsch;;,2019-12-17,5.949349760438056
4Ns4GwsF,37,verb,tuscheln,tuscheln,target,lower-right,TRUE,2025-11-28T12:32:57Z,5682,2025-11-28,Weiblich,Deutsch;;,2019-12-17,5.949349760438056
4Ns4GwsF,38,noun,hummer,hummer,target,upper-right,TRUE,2025-11-28T12:33:05Z,7261,2025-11-28,Weiblich,Deutsch;;,2019-12-17,5.949349760438056
4Ns4GwsF,39,noun,nelke,nelke,target,upper-right,TRUE,2025-11-28T12:33:11Z,4135,2025-11-28,Weiblich,Deutsch;;,2019-12-17,5.949349760438056
4Ns4GwsF,40,verb,betrachten,bewachen,dist2,upper-right,FALSE,2025-11-28T12:33:23Z,11158,2025-11-28,Weiblich,Deutsch;;,2019-12-17,5.949349760438056
4Ns4GwsF,41,noun,flunder,flunder,target,lower-right,TRUE,2025-11-28T12:33:32Z,7534,2025-11-28,Weiblich,Deutsch;;,2019-12-17,5.949349760438056
4Ns4GwsF,42,noun,cello,harfe,dist1,lower-right,FALSE,2025-11-28T12:33:39Z,4711,2025-11-28,Weiblich,Deutsch;;,2019-12-17,5.949349760438056
4Ns4GwsF,1,noun,auge,auge,target,upper-left,TRUE,2026-03-02T12:37:17Z,3244,2026-03-02,Weiblich,Deutsch;;,2019-12-17,6.206707734428473
4Ns4GwsF,2,verb,schweben,schweben,target,lower-left,TRUE,2026-03-02T12:37:22Z,3882,2026-03-02,Weiblich,Deutsch;;,2019-12-17,6.206707734428473
4Ns4GwsF,3,noun,moehre,moehre,target,lower-right,TRUE,2026-03-02T12:37:27Z,3087,2026-03-02,Weiblich,Deutsch;;,2019-12-17,6.206707734428473
4Ns4GwsF,4,noun,ameise,ameise,target,upper-right,TRUE,2026-03-02T12:37:32Z,4177,2026-03-02,Weiblich,Deutsch;;,2019-12-17,6.206707734428473
4Ns4GwsF,5,verb,jonglieren,jonglieren,target,upper-right,TRUE,2026-03-02T12:37:36Z,2632,2026-03-02,Weiblich,Deutsch;;,2019-12-17,6.206707734428473
4Ns4GwsF,6,noun,elch,elch,target,upper-left,TRUE,2026-03-02T12:37:40Z,3079,2026-03-02,Weiblich,Deutsch;;,2019-12-17,6.206707734428473
4Ns4GwsF,7,noun,chor,orchester,dist1,lower-right,FALSE,2026-03-02T12:37:46Z,4007,2026-03-02,Weiblich,Deutsch;;,2019-12-17,6.206707734428473
4Ns4GwsF,8,verb,torkeln,torkeln,target,upper-left,TRUE,2026-03-02T12:37:55Z,7990,2026-03-02,Weiblich,Deutsch;;,2019-12-17,6.206707734428473
4Ns4GwsF,9,verb,studieren,unterrichten,dist1,upper-right,FALSE,2026-03-02T12:38:03Z,6693,2026-03-02,Weiblich,Deutsch;;,2019-12-17,6.206707734428473
4Ns4GwsF,10,verb,operieren,operieren,target,lower-left,TRUE,2026-03-02T12:38:09Z,5317,2026-03-02,Weiblich,Deutsch;;,2019-12-17,6.206707734428473
4Ns4GwsF,11,noun,ventilator,ventilator,target,lower-left,TRUE,2026-03-02T12:38:14Z,3661,2026-03-02,Weiblich,Deutsch;;,2019-12-17,6.206707734428473
4Ns4GwsF,12,verb,waehlen,waehlen,target,lower-right,TRUE,2026-03-02T12:38:20Z,5311,2026-03-02,Weiblich,Deutsch;;,2019-12-17,6.206707734428473
4Ns4GwsF,13,noun,rucola,rosenkohl,dist1,lower-left,FALSE,2026-03-02T12:38:29Z,7560,2026-03-02,Weiblich,Deutsch;;,2019-12-17,6.206707734428473
4Ns4GwsF,14,verb,scheren,scheren,target,upper-right,TRUE,2026-03-02T12:38:35Z,4144,2026-03-02,Weiblich,Deutsch;;,2019-12-17,6.206707734428473
4Ns4GwsF,15,noun,giraffe,giraffe,target,upper-left,TRUE,2026-03-02T12:38:39Z,2683,2026-03-02,Weiblich,Deutsch;;,2019-12-17,6.206707734428473
4Ns4GwsF,16,noun,palme,palme,target,lower-left,TRUE,2026-03-02T12:38:43Z,3803,2026-03-02,Weiblich,Deutsch;;,2019-12-17,6.206707734428473
4Ns4GwsF,17,verb,tadeln,fluestern,dist3,upper-left,FALSE,2026-03-02T12:38:50Z,6019,2026-03-02,Weiblich,Deutsch;;,2019-12-17,6.206707734428473
4Ns4GwsF,18,noun,ananas,ananas,target,lower-right,TRUE,2026-03-02T12:38:55Z,3690,2026-03-02,Weiblich,Deutsch;;,2019-12-17,6.206707734428473
4Ns4GwsF,19,verb,empfangen,empfangen,target,lower-right,TRUE,2026-03-02T12:39:04Z,6518,2026-03-02,Weiblich,Deutsch;;,2019-12-17,6.206707734428473
4Ns4GwsF,20,verb,verloben,verloben,target,upper-left,TRUE,2026-03-02T12:39:10Z,5580,2026-03-02,Weiblich,Deutsch;;,2019-12-17,6.206707734428473
4Ns4GwsF,21,noun,ozean,ozean,target,upper-left,TRUE,2026-03-02T12:39:15Z,3551,2026-03-02,Weiblich,Deutsch;;,2019-12-17,6.206707734428473
4Ns4GwsF,22,verb,faulenzen,faulenzen,target,upper-left,TRUE,2026-03-02T12:39:20Z,4317,2026-03-02,Weiblich,Deutsch;;,2019-12-17,6.206707734428473
4Ns4GwsF,23,noun,gazelle,gazelle,target,lower-right,TRUE,2026-03-02T12:39:28Z,6318,2026-03-02,Weiblich,Deutsch;;,2019-12-17,6.206707734428473
4Ns4GwsF,24,verb,liefern,liefern,target,lower-left,TRUE,2026-03-02T12:39:38Z,9203,2026-03-02,Weiblich,Deutsch;;,2019-12-17,6.206707734428473
4Ns4GwsF,25,noun,pfifferling,pfifferling,target,upper-left,TRUE,2026-03-02T12:39:45Z,5173,2026-03-02,Weiblich,Deutsch;;,2019-12-17,6.206707734428473
4Ns4GwsF,26,verb,dekorieren,dekorieren,target,upper-right,TRUE,2026-03-02T12:39:51Z,5130,2026-03-02,Weiblich,Deutsch;;,2019-12-17,6.206707734428473
4Ns4GwsF,27,verb,bekennen,ziehen,dist3,lower-left,FALSE,2026-03-02T12:39:58Z,5426,2026-03-02,Weiblich,Deutsch;;,2019-12-17,6.206707734428473
4Ns4GwsF,28,noun,ruine,ruine,target,lower-right,TRUE,2026-03-02T12:40:03Z,3826,2026-03-02,Weiblich,Deutsch;;,2019-12-17,6.206707734428473
4Ns4GwsF,29,noun,labyrinth,labyrinth,target,lower-left,TRUE,2026-03-02T12:40:07Z,3127,2026-03-02,Weiblich,Deutsch;;,2019-12-17,6.206707734428473
4Ns4GwsF,30,noun,orchidee,orchidee,target,lower-left,TRUE,2026-03-02T12:40:14Z,6299,2026-03-02,Weiblich,Deutsch;;,2019-12-17,6.206707734428473
4Ns4GwsF,31,verb,schwanken,drehen,dist1,lower-right,FALSE,2026-03-02T12:40:19Z,4181,2026-03-02,Weiblich,Deutsch;;,2019-12-17,6.206707734428473
4Ns4GwsF,32,noun,zucchini,zucchini,target,upper-right,TRUE,2026-03-02T12:40:25Z,3915,2026-03-02,Weiblich,Deutsch;;,2019-12-17,6.206707734428473
4Ns4GwsF,33,verb,tuermen,tuermen,target,upper-left,TRUE,2026-03-02T12:40:30Z,4633,2026-03-02,Weiblich,Deutsch;;,2019-12-17,6.206707734428473
4Ns4GwsF,34,verb,befreien,befreien,target,lower-right,TRUE,2026-03-02T12:40:36Z,4790,2026-03-02,Weiblich,Deutsch;;,2019-12-17,6.206707734428473
4Ns4GwsF,35,noun,kajak,segelboot,dist1,lower-left,FALSE,2026-03-02T12:40:42Z,3868,2026-03-02,Weiblich,Deutsch;;,2019-12-17,6.206707734428473
4Ns4GwsF,36,verb,abseilen,abseilen,target,upper-left,TRUE,2026-03-02T12:40:46Z,3224,2026-03-02,Weiblich,Deutsch;;,2019-12-17,6.206707734428473
4Ns4GwsF,37,verb,tuscheln,tuscheln,target,lower-right,TRUE,2026-03-02T12:40:51Z,3286,2026-03-02,Weiblich,Deutsch;;,2019-12-17,6.206707734428473
4Ns4GwsF,38,noun,hummer,hummer,target,upper-right,TRUE,2026-03-02T12:40:56Z,3897,2026-03-02,Weiblich,Deutsch;;,2019-12-17,6.206707734428473
4Ns4GwsF,39,noun,nelke,veilchen,dist1,lower-right,FALSE,2026-03-02T12:41:01Z,4222,2026-03-02,Weiblich,Deutsch;;,2019-12-17,6.206707734428473
4Ns4GwsF,40,verb,betrachten,betrachten,target,lower-left,TRUE,2026-03-02T12:41:10Z,7877,2026-03-02,Weiblich,Deutsch;;,2019-12-17,6.206707734428473
4Ns4GwsF,41,noun,flunder,flunder,target,lower-right,TRUE,2026-03-02T12:41:21Z,8735,2026-03-02,Weiblich,Deutsch;;,2019-12-17,6.206707734428473
4Ns4GwsF,42,noun,cello,cello,target,lower-left,TRUE,2026-03-02T12:41:26Z,3606,2026-03-02,Weiblich,Deutsch;;,2019-12-17,6.206707734428473
S9S1t1sT,1,noun,auge,auge,target,upper-left,TRUE,2025-12-05T09:03:47Z,3306,2025-12-05,Männlich,Deutsch;;,2019-09-21,6.206707734428473
S9S1t1sT,2,verb,schweben,schweben,target,lower-left,TRUE,2025-12-05T09:03:53Z,3915,2025-12-05,Männlich,Deutsch;;,2019-09-21,6.206707734428473
S9S1t1sT,3,noun,moehre,moehre,target,lower-right,TRUE,2025-12-05T09:03:57Z,2280,2025-12-05,Männlich,Deutsch;;,2019-09-21,6.206707734428473
S9S1t1sT,4,noun,ameise,ameise,target,upper-right,TRUE,2025-12-05T09:04:00Z,1990,2025-12-05,Männlich,Deutsch;;,2019-09-21,6.206707734428473
S9S1t1sT,5,verb,jonglieren,jonglieren,target,upper-right,TRUE,2025-12-05T09:04:03Z,2285,2025-12-05,Männlich,Deutsch;;,2019-09-21,6.206707734428473
S9S1t1sT,6,noun,elch,elch,target,upper-left,TRUE,2025-12-05T09:04:07Z,2772,2025-12-05,Männlich,Deutsch;;,2019-09-21,6.206707734428473
S9S1t1sT,7,noun,chor,chor,target,upper-right,TRUE,2025-12-05T09:04:10Z,1876,2025-12-05,Männlich,Deutsch;;,2019-09-21,6.206707734428473
S9S1t1sT,8,verb,torkeln,backen,dist3,lower-right,FALSE,2025-12-05T09:04:25Z,13725,2025-12-05,Männlich,Deutsch;;,2019-09-21,6.206707734428473
S9S1t1sT,9,verb,studieren,unterrichten,dist1,upper-right,FALSE,2025-12-05T09:04:29Z,3042,2025-12-05,Männlich,Deutsch;;,2019-09-21,6.206707734428473
S9S1t1sT,10,verb,operieren,impfen,dist1,upper-right,FALSE,2025-12-05T09:04:33Z,2581,2025-12-05,Männlich,Deutsch;;,2019-09-21,6.206707734428473
S9S1t1sT,11,noun,ventilator,ventilator,target,lower-left,TRUE,2025-12-05T09:04:37Z,2967,2025-12-05,Männlich,Deutsch;;,2019-09-21,6.206707734428473
S9S1t1sT,12,verb,waehlen,waehlen,target,lower-right,TRUE,2025-12-05T09:04:43Z,5381,2025-12-05,Männlich,Deutsch;;,2019-09-21,6.206707734428473
S9S1t1sT,13,noun,rucola,rucola,target,lower-right,TRUE,2025-12-05T09:04:48Z,3874,2025-12-05,Männlich,Deutsch;;,2019-09-21,6.206707734428473
S9S1t1sT,14,verb,scheren,scheren,target,upper-right,TRUE,2025-12-05T09:04:53Z,4421,2025-12-05,Männlich,Deutsch;;,2019-09-21,6.206707734428473
S9S1t1sT,15,noun,giraffe,giraffe,target,upper-left,TRUE,2025-12-05T09:04:56Z,2020,2025-12-05,Männlich,Deutsch;;,2019-09-21,6.206707734428473
S9S1t1sT,16,noun,palme,palme,target,lower-left,TRUE,2025-12-05T09:05:01Z,2980,2025-12-05,Männlich,Deutsch;;,2019-09-21,6.206707734428473
S9S1t1sT,17,verb,tadeln,radeln,dist2,lower-left,FALSE,2025-12-05T09:05:08Z,6005,2025-12-05,Männlich,Deutsch;;,2019-09-21,6.206707734428473
S9S1t1sT,18,noun,ananas,ananas,target,lower-right,TRUE,2025-12-05T09:05:11Z,2436,2025-12-05,Männlich,Deutsch;;,2019-09-21,6.206707734428473
S9S1t1sT,19,verb,empfangen,verschicken,dist1,lower-left,FALSE,2025-12-05T09:05:17Z,4470,2025-12-05,Männlich,Deutsch;;,2019-09-21,6.206707734428473
S9S1t1sT,20,verb,verloben,heiraten,dist1,lower-right,FALSE,2025-12-05T09:05:21Z,3739,2025-12-05,Männlich,Deutsch;;,2019-09-21,6.206707734428473
S9S1t1sT,21,noun,ozean,ozean,target,upper-left,TRUE,2025-12-05T09:05:25Z,2757,2025-12-05,Männlich,Deutsch;;,2019-09-21,6.206707734428473
S9S1t1sT,22,verb,faulenzen,faulenzen,target,upper-left,TRUE,2025-12-05T09:05:33Z,5154,2025-12-05,Männlich,Deutsch;;,2019-09-21,6.206707734428473
S9S1t1sT,23,noun,gazelle,gazelle,target,lower-right,TRUE,2025-12-05T09:05:37Z,2688,2025-12-05,Männlich,Deutsch;;,2019-09-21,6.206707734428473
S9S1t1sT,24,verb,liefern,liefern,target,lower-left,TRUE,2025-12-05T09:05:42Z,3194,2025-12-05,Männlich,Deutsch;;,2019-09-21,6.206707734428473
S9S1t1sT,25,noun,pfifferling,pfifferling,target,upper-left,TRUE,2025-12-05T09:05:51Z,8130,2025-12-05,Männlich,Deutsch;;,2019-09-21,6.206707734428473
S9S1t1sT,26,verb,dekorieren,dekorieren,target,upper-right,TRUE,2025-12-05T09:05:56Z,3955,2025-12-05,Männlich,Deutsch;;,2019-09-21,6.206707734428473
S9S1t1sT,27,verb,bekennen,bekennen,target,upper-left,TRUE,2025-12-05T09:06:02Z,5101,2025-12-05,Männlich,Deutsch;;,2019-09-21,6.206707734428473
S9S1t1sT,28,noun,ruine,ruine,target,lower-right,TRUE,2025-12-05T09:06:07Z,4331,2025-12-05,Männlich,Deutsch;;,2019-09-21,6.206707734428473
S9S1t1sT,29,noun,labyrinth,labyrinth,target,lower-left,TRUE,2025-12-05T09:06:10Z,2254,2025-12-05,Männlich,Deutsch;;,2019-09-21,6.206707734428473
S9S1t1sT,30,noun,orchidee,orchidee,target,lower-left,TRUE,2025-12-05T09:06:14Z,3629,2025-12-05,Männlich,Deutsch;;,2019-09-21,6.206707734428473
S9S1t1sT,31,verb,schwanken,schwanken,target,upper-right,TRUE,2025-12-05T09:06:21Z,5476,2025-12-05,Männlich,Deutsch;;,2019-09-21,6.206707734428473
S9S1t1sT,32,noun,zucchini,zucchini,target,upper-right,TRUE,2025-12-05T09:06:25Z,3133,2025-12-05,Männlich,Deutsch;;,2019-09-21,6.206707734428473
